"id","sex","age","session","block","trial","stim_type","stim","resp","acc","rt"
1,1,21,1,1,5,2,"Bamahun",2,1,0.847
1,1,21,1,1,6,2,"Wernir",2,1,0.654
1,1,21,1,1,7,3,"Wsboaä",2,1,0.647
1,1,21,1,1,8,1,"Leiste",1,1,0.543
1,1,21,1,1,9,0,"dauern",1,1,0.591
1,1,21,1,1,10,0,"Ereignis",1,1,0.783
1,1,21,1,1,11,3,"Brgeht",2,1,0.711
1,1,21,1,1,12,1,"Nomade",1,1,0.934
1,1,21,1,1,13,1,"beseelt",2,0,0.687
1,1,21,1,1,14,0,"Kandidat",1,1,1.365
1,1,21,1,1,15,1,"bodenlos",1,1,0.614
1,1,21,1,1,16,2,"orkendun",2,1,1.055
1,1,21,1,1,17,0,"Steuer",1,1,0.656
1,1,21,1,1,18,3,"Trlttcc",2,1,0.664
1,1,21,1,1,19,1,"surren",1,1,0.815
1,1,21,1,1,20,3,"helah",2,1,0.871
1,1,21,1,1,21,3,"Slcali",2,1,0.728
1,1,21,1,1,22,3,"gyucdt",2,1,0.645
1,1,21,1,1,23,2,"Fasiin",2,1,0.907
1,1,21,1,1,24,2,"Frest",2,1,1.072
1,1,21,1,1,25,3,"Slarerc",2,1,0.71
1,1,21,1,1,26,2,"Gefellin",2,1,2.695
1,1,21,1,1,27,1,"hierin",1,1,1.167
1,1,21,1,1,28,2,"Gilonk",2,1,0.889
1,1,21,1,1,29,1,"Strip",1,1,1.023
1,1,21,1,1,30,2,"Rikord",2,1,0.871
1,1,21,1,1,31,2,"Kleenbas",2,1,1.15
1,1,21,1,1,32,0,"gering",1,1,0.679
1,1,21,1,1,33,2,"vorbecht",2,1,1.272
1,1,21,1,1,34,2,"gufunden",2,1,1.007
1,1,21,1,1,35,0,"Union",1,1,0.663
1,1,21,1,1,36,0,"Technik",1,1,0.705
1,1,21,1,1,37,2,"Ebminn",2,1,0.801
1,1,21,1,1,38,0,"Stelle",1,1,0.64
1,1,21,1,1,39,1,"Baier",2,0,1.28
1,1,21,1,1,40,3,"Pirsur",2,1,0.776
1,1,21,1,1,41,2,"bawirtun",2,1,1.032
1,1,21,1,1,42,1,"erbost",1,1,0.896
1,1,21,1,1,43,1,"gleich",1,1,0.664
1,1,21,1,1,44,3,"Saatäeer",2,1,1.008
1,1,21,1,1,45,2,"wenkun",2,1,0.799
1,1,21,1,1,46,3,"Reodtne",2,1,0.617
1,1,21,1,1,47,3,"Rnlumrr",2,1,0.672
1,1,21,1,1,48,0,"fangen",1,1,0.743
1,1,21,1,1,49,2,"Andlager",2,1,1.496
1,1,21,1,1,50,0,"Licht",1,1,1.03
1,1,21,1,1,51,1,"längs",1,1,0.758
1,1,21,1,1,52,3,"Ehfiaag",2,1,0.768
1,1,21,1,1,53,1,"Trägheit",1,1,0.865
1,1,21,1,1,54,1,"paddeln",1,1,0.872
1,1,21,1,1,55,2,"Sognang",2,1,0.927
1,1,21,1,1,56,1,"Dolomit",1,1,0.825
1,1,21,1,1,57,2,"Schieße",1,0,0.712
1,1,21,1,1,58,0,"Absatz",1,1,0.711
1,1,21,1,1,59,1,"Südküste",1,1,0.679
1,1,21,1,1,60,3,"varker",2,1,0.696
1,1,21,1,1,61,0,"nochmals",1,1,0.792
1,1,21,1,1,62,0,"Kanton",1,1,0.703
1,1,21,1,1,63,0,"beraten",1,1,0.663
1,1,21,1,1,64,2,"bluteg",2,1,1.159
1,1,21,1,1,65,1,"Gesell",1,1,0.647
1,1,21,1,1,66,2,"Kunigin",2,1,0.928
1,1,21,1,1,67,3,"Vrogwn",2,1,0.792
1,1,21,1,1,68,2,"Rimiki",2,1,1.32
1,1,21,1,1,69,2,"Besur",2,1,0.792
1,1,21,1,1,70,1,"mulmig",1,1,0.727
1,1,21,1,1,71,3,"Gegyn",2,1,1.536
1,1,21,1,1,72,3,"kiscndte",2,1,0.895
1,1,21,1,1,73,1,"Köpfchen",1,1,0.736
1,1,21,1,1,74,0,"leiten",1,1,0.687
1,1,21,1,1,75,3,"Gaorc",2,1,0.88
1,1,21,1,1,76,3,"ailngen",2,1,0.928
1,1,21,1,1,77,0,"Person",1,1,0.592
1,1,21,1,1,78,3,"Soäfhb",2,1,0.711
1,1,21,1,1,79,2,"Duzent",1,0,4.439
1,1,21,1,1,80,2,"billun",2,1,0.639
1,1,21,1,1,81,3,"Mupagi",2,1,0.967
1,1,21,1,1,82,0,"Anschlag",1,1,1.239
1,1,21,1,1,83,1,"fächern",1,1,0.695
1,1,21,1,1,84,0,"erlauben",1,1,0.518
1,1,21,1,1,85,1,"Dezernat",1,1,1.087
1,1,21,1,1,86,0,"Flucht",1,1,0.639
1,1,21,1,1,87,1,"Echtzeit",1,1,0.751
1,1,21,1,1,88,1,"Barbar",1,1,0.839
1,1,21,1,1,89,0,"Bilanz",1,1,0.591
1,1,21,1,1,90,3,"Gasbsg",2,1,0.703
1,1,21,1,1,91,0,"Markt",1,1,0.534
1,1,21,1,1,92,2,"Helzor",2,1,1.056
1,1,21,1,1,93,0,"Sprache",1,1,0.679
1,1,21,1,1,94,0,"stärken",1,1,0.583
1,1,21,1,1,95,3,"dnhbace",2,1,0.591
1,1,21,1,1,96,0,"erfolgen",1,1,0.631
1,1,21,1,1,97,3,"Motiig",2,1,0.759
1,1,21,1,1,98,1,"Erdapfel",1,1,0.855
1,1,21,1,1,99,3,"zuthtc",2,1,0.614
1,1,21,1,1,100,0,"erweisen",1,1,0.641
1,1,21,1,1,101,3,"uomne",2,1,0.703
1,1,21,1,1,102,1,"walken",1,1,0.72
1,1,21,1,1,103,1,"Surfen",1,1,0.704
1,1,21,1,1,104,2,"Villo",2,1,0.929
1,1,21,1,2,5,2,"Ioslusar",2,1,0.879
1,1,21,1,2,6,0,"danken",1,1,0.575
1,1,21,1,2,7,1,"Arrest",1,1,0.711
1,1,21,1,2,8,0,"aktuell",1,1,0.711
1,1,21,1,2,9,0,"Aussicht",1,1,0.591
1,1,21,1,2,10,1,"höfisch",1,1,0.823
1,1,21,1,2,11,0,"Täter",1,1,0.535
1,1,21,1,2,12,2,"horob",2,1,0.823
1,1,21,1,2,13,1,"Slawe",1,1,0.943
1,1,21,1,2,14,3,"Sbewb",2,1,0.751
1,1,21,1,2,15,1,"fidel",1,1,0.831
1,1,21,1,2,16,3,"Gcaait",2,1,0.718
1,1,21,1,2,17,0,"Turnier",1,1,0.655
1,1,21,1,2,18,1,"willens",1,1,0.88
1,1,21,1,2,19,0,"Wahrheit",1,1,0.607
1,1,21,1,2,20,1,"Gemach",1,1,0.935
1,1,21,1,2,21,3,"gogro",2,1,0.768
1,1,21,1,2,22,0,"melden",1,1,0.536
1,1,21,1,2,23,2,"hiltlis",2,1,1.201
1,1,21,1,2,24,2,"Mubbing",2,1,0.952
1,1,21,1,2,25,3,"Eonehnu",2,1,1.039
1,1,21,1,2,26,1,"gelöscht",1,1,0.672
1,1,21,1,2,27,2,"Sexufan",2,1,1.127
1,1,21,1,2,28,1,"postum",1,1,2.312
1,1,21,1,2,29,3,"Mnudonn",2,1,0.567
1,1,21,1,2,30,1,"Glaser",1,1,0.847
1,1,21,1,2,31,0,"Sturm",1,1,0.51
1,1,21,1,2,32,2,"obsaats",2,1,0.63
1,1,21,1,2,33,3,"rensmed",2,1,0.766
1,1,21,1,2,34,2,"Phantam",2,1,0.871
1,1,21,1,2,35,2,"prissin",2,1,0.653
1,1,21,1,2,36,0,"Auftakt",1,1,0.759
1,1,21,1,2,37,0,"Schritt",1,1,0.807
1,1,21,1,2,38,3,"Haeakea",2,1,0.575
1,1,21,1,2,39,0,"Ausbau",1,1,0.727
1,1,21,1,2,40,1,"Hybride",1,1,0.759
1,1,21,1,2,41,3,"aodrua",2,1,0.558
1,1,21,1,2,42,3,"Bekimk",2,1,0.566
1,1,21,1,2,43,3,"Amlsllt",2,1,0.589
1,1,21,1,2,44,0,"hundert",1,1,0.646
1,1,21,1,2,45,2,"Mitluod",2,1,0.766
1,1,21,1,2,46,2,"Fasch",2,1,0.694
1,1,21,1,2,47,2,"Dilto",1,0,1.135
1,1,21,1,2,48,0,"Pflanze",1,1,0.671
1,1,21,1,2,49,1,"Wildbahn",1,1,0.598
1,1,21,1,2,50,2,"besonnon",2,1,1.263
1,1,21,1,2,51,2,"Flugga",2,1,0.736
1,1,21,1,2,52,2,"Ombolinz",2,1,0.577
1,1,21,1,2,53,1,"Rinde",1,1,0.543
1,1,21,1,2,54,1,"Schimmer",1,1,0.718
1,1,21,1,2,55,1,"Domherr",1,1,0.877
1,1,21,1,2,56,3,"Gusrtc",2,1,0.598
1,1,21,1,2,57,0,"Leute",1,1,0.542
1,1,21,1,2,58,3,"bietanl",2,1,0.589
1,1,21,1,2,59,3,"Ailnsui",2,1,0.726
1,1,21,1,2,60,3,"teukpel",2,1,0.646
1,1,21,1,2,61,1,"Unding",1,1,1.006
1,1,21,1,2,62,3,"basgl",2,1,0.598
1,1,21,1,2,63,0,"Versuch",1,1,0.574
1,1,21,1,2,64,2,"Pramour",2,1,0.894
1,1,21,1,2,65,0,"Bauer",1,1,1.189
1,1,21,1,2,66,3,"Salor",2,1,0.88
1,1,21,1,2,67,3,"Soaevorb",2,1,0.608
1,1,21,1,2,68,2,"Guseng",2,1,0.942
1,1,21,1,2,69,1,"bummeln",1,1,0.583
1,1,21,1,2,70,1,"einatmen",1,1,0.702
1,1,21,1,2,71,1,"Uhrwerk",1,1,0.67
1,1,21,1,2,72,0,"Internet",1,1,0.526
1,1,21,1,2,73,0,"richtig",1,1,0.478
1,1,21,1,2,74,1,"sumpfig",1,1,0.901
1,1,21,1,2,75,1,"zimmern",1,1,1.887
1,1,21,1,2,76,3,"Loiofl",2,1,0.687
1,1,21,1,2,77,1,"seriell",2,0,2.111
1,1,21,1,2,78,2,"Riemeng",2,1,1.062
1,1,21,1,2,79,2,"plaato",2,1,0.615
1,1,21,1,2,80,0,"Direktor",1,1,0.574
1,1,21,1,2,81,2,"anganihm",2,1,0.677
1,1,21,1,2,82,3,"Piiod",2,1,0.614
1,1,21,1,2,83,1,"hellwach",1,1,0.711
1,1,21,1,2,84,3,"wuniwe",2,1,0.782
1,1,21,1,2,85,0,"senken",1,1,0.629
1,1,21,1,2,86,0,"Beratung",1,1,0.645
1,1,21,1,2,87,3,"Remearl",2,1,0.927
1,1,21,1,2,88,3,"Grgxeo",2,1,0.71
1,1,21,1,2,89,2,"wihllis",2,1,0.526
1,1,21,1,2,90,0,"Herbst",1,1,0.533
1,1,21,1,2,91,0,"günstig",1,1,0.933
1,1,21,1,2,92,3,"Hoknmt",2,1,0.749
1,1,21,1,2,93,2,"Ruetar",2,1,0.591
1,1,21,1,2,94,2,"nahron",2,1,0.806
1,1,21,1,2,95,3,"Thhfr",2,1,0.502
1,1,21,1,2,96,1,"geartet",1,1,0.751
1,1,21,1,2,97,2,"Ondrunde",2,1,0.814
1,1,21,1,2,98,0,"zurzeit",1,1,0.694
1,1,21,1,2,99,0,"Mädchen",1,1,1.71
1,1,21,1,2,100,3,"Zareeee",2,1,0.551
1,1,21,1,2,101,1,"reuen",2,0,1.645
1,1,21,1,2,102,2,"nobst",2,1,1.358
1,1,21,1,2,103,2,"qeollin",2,1,0.914
1,1,21,1,2,104,1,"Betreff",1,1,0.534
1,1,21,1,3,5,2,"Suumunn",2,1,0.678
1,1,21,1,3,6,0,"schützen",1,1,0.607
1,1,21,1,3,7,1,"lumpen",1,1,1.471
1,1,21,1,3,8,1,"Klettern",1,1,1.022
1,1,21,1,3,9,0,"unten",1,1,0.775
1,1,21,1,3,10,2,"Kachen",2,1,1.015
1,1,21,1,3,11,3,"Benfh",2,1,0.719
1,1,21,1,3,12,1,"beige",1,1,0.781
1,1,21,1,3,13,2,"Taouring",2,1,0.71
1,1,21,1,3,14,2,"Zeutplin",2,1,0.701
1,1,21,1,3,15,2,"Fachur",2,1,0.805
1,1,21,1,3,16,3,"Sarett",2,1,0.734
1,1,21,1,3,17,2,"Trugek",2,1,0.654
1,1,21,1,3,18,3,"Fitupkr",2,1,0.838
1,1,21,1,3,19,0,"nötig",1,1,0.574
1,1,21,1,3,20,1,"Gelbe",1,1,0.893
1,1,21,1,3,21,2,"Murtyrur",2,1,0.59
1,1,21,1,3,22,2,"blouch",2,1,0.719
1,1,21,1,3,23,0,"Schlag",1,1,0.623
1,1,21,1,3,24,3,"Aasdha",2,1,0.542
1,1,21,1,3,25,0,"Grenze",1,1,0.59
1,1,21,1,3,26,3,"tnsde",2,1,0.558
1,1,21,1,3,27,1,"Syrer",1,1,0.703
1,1,21,1,3,28,1,"Bleiche",1,1,0.781
1,1,21,1,3,29,0,"billig",1,1,0.574
1,1,21,1,3,30,0,"täglich",1,1,0.501
1,1,21,1,3,31,0,"Traum",1,1,0.485
1,1,21,1,3,32,1,"Färber",1,1,0.508
1,1,21,1,3,33,0,"Spannung",1,1,0.535
1,1,21,1,3,34,0,"Börse",1,1,0.494
1,1,21,1,3,35,1,"Präfekt",2,0,1.582
1,1,21,1,3,36,1,"Exodus",1,1,0.719
1,1,21,1,3,37,0,"zudem",1,1,0.599
1,1,21,1,3,38,2,"Icryl",2,1,1.151
1,1,21,1,3,39,1,"Arsch",1,1,0.598
1,1,21,1,3,40,2,"Bostund",2,1,0.982
1,1,21,1,3,41,3,"Qtlma",2,1,0.602
1,1,21,1,3,42,1,"Ächtung",2,0,1.84
1,1,21,1,3,43,0,"Personal",1,1,0.911
1,1,21,1,3,44,2,"Blumo",2,1,0.71
1,1,21,1,3,45,2,"Hellor",2,1,0.799
1,1,21,1,3,46,3,"Krtai",2,1,0.566
1,1,21,1,3,47,1,"Sehne",1,1,0.605
1,1,21,1,3,48,3,"Zahpehhn",2,1,0.83
1,1,21,1,3,49,3,"daadc",2,1,0.534
1,1,21,1,3,50,3,"Moxäfc",2,1,0.742
1,1,21,1,3,51,2,"tuurosch",2,1,0.671
1,1,21,1,3,52,1,"Lerche",1,1,0.734
1,1,21,1,3,53,0,"zurück",1,1,0.702
1,1,21,1,3,54,1,"gehegt",1,1,1.591
1,1,21,1,3,55,1,"Lügner",1,1,0.605
1,1,21,1,3,56,1,"knallrot",1,1,0.559
1,1,21,1,3,57,3,"pitdlre",2,1,0.655
1,1,21,1,3,58,2,"Beozeet",2,1,0.677
1,1,21,1,3,59,3,"Dudpclr",2,1,0.534
1,1,21,1,3,60,0,"wirken",1,1,0.629
1,1,21,1,3,61,1,"Brillanz",1,1,1.271
1,1,21,1,3,62,1,"Zweier",1,1,0.679
1,1,21,1,3,63,2,"Arstir",2,1,0.726
1,1,21,1,3,64,1,"Schwinge",1,1,0.727
1,1,21,1,3,65,0,"heutig",1,1,0.774
1,1,21,1,3,66,0,"drücken",1,1,0.486
1,1,21,1,3,67,1,"operiert",1,1,0.775
1,1,21,1,3,68,2,"Miiti",2,1,0.767
1,1,21,1,3,69,0,"Änderung",1,1,0.566
1,1,21,1,3,70,3,"eeaeau",2,1,0.566
1,1,21,1,3,71,0,"Dialog",1,1,0.566
1,1,21,1,3,72,1,"Kegler",1,1,0.847
1,1,21,1,3,73,2,"uansohan",2,1,0.566
1,1,21,1,3,74,2,"Kanzol",2,1,0.741
1,1,21,1,3,75,3,"uabrzsa",2,1,0.558
1,1,21,1,3,76,2,"Fandas",2,1,0.724
1,1,21,1,3,77,2,"Zoigan",2,1,0.622
1,1,21,1,3,78,0,"erzählen",1,1,0.655
1,1,21,1,3,79,0,"Aufstieg",1,1,0.967
1,1,21,1,3,80,1,"Essig",1,1,0.51
1,1,21,1,3,81,3,"Eauipb",2,1,0.574
1,1,21,1,3,82,3,"Jafsudl",2,1,0.525
1,1,21,1,3,83,3,"Hrtclii",2,1,0.51
1,1,21,1,3,84,0,"Februar",1,1,0.598
1,1,21,1,3,85,0,"klingen",1,1,0.551
1,1,21,1,3,86,3,"Biiska",2,1,0.525
1,1,21,1,3,87,1,"dämmen",1,1,0.582
1,1,21,1,3,88,2,"virielig",2,1,0.631
1,1,21,1,3,89,3,"Dizrfeit",2,1,0.582
1,1,21,1,3,90,3,"Tvrmsoei",2,1,0.557
1,1,21,1,3,91,3,"Meübleo",2,1,0.493
1,1,21,1,3,92,3,"Ptniw",2,1,0.47
1,1,21,1,3,93,2,"Traff",2,1,1.599
1,1,21,1,3,94,2,"baxon",2,1,0.838
1,1,21,1,3,95,0,"wählen",1,1,0.558
1,1,21,1,3,96,3,"Tiibt",2,1,0.566
1,1,21,1,3,97,2,"Honsaot",2,1,1.014
1,1,21,1,3,98,0,"hinaus",1,1,0.711
1,1,21,1,3,99,1,"Markttag",1,1,0.933
1,1,21,1,3,100,2,"Hirde",2,1,1.397
1,1,21,1,3,101,0,"Senat",1,1,0.758
1,1,21,1,3,102,3,"Snrie",2,1,0.614
1,1,21,1,3,103,1,"rumoren",1,1,0.902
1,1,21,1,3,104,3,"Weaue",2,1,0.551
1,1,21,1,4,5,0,"Betrieb",1,1,0.511
1,1,21,1,4,6,2,"Trock",2,1,1.079
1,1,21,1,4,7,1,"Demut",1,1,0.686
1,1,21,1,4,8,1,"jobben",1,1,0.791
1,1,21,1,4,9,3,"Sitso",2,1,0.757
1,1,21,1,4,10,3,"Aewiae",2,1,0.59
1,1,21,1,4,11,3,"Hüelfs",2,1,0.606
1,1,21,1,4,12,3,"Rnkui",2,1,0.471
1,1,21,1,4,13,1,"Barde",1,1,1.549
1,1,21,1,4,14,0,"zweimal",1,1,0.55
1,1,21,1,4,15,1,"Eruption",2,0,3.869
1,1,21,1,4,16,3,"hruliua",2,1,0.622
1,1,21,1,4,17,1,"Vorraum",1,1,1.071
1,1,21,1,4,18,1,"Serenade",1,1,0.823
1,1,21,1,4,19,0,"römisch",1,1,0.63
1,1,21,1,4,20,2,"buziugin",2,1,0.647
1,1,21,1,4,21,2,"Oppirat",2,1,1.069
1,1,21,1,4,22,3,"Tsetwh",2,1,0.526
1,1,21,1,4,23,0,"sinnvoll",1,1,0.757
1,1,21,1,4,24,0,"Anspruch",1,1,0.541
1,1,21,1,4,25,0,"verlegen",1,1,0.654
1,1,21,1,4,26,0,"Liebe",1,1,0.511
1,1,21,1,4,27,0,"örtlich",1,1,0.558
1,1,21,1,4,28,1,"tosen",1,1,1.023
1,1,21,1,4,29,2,"postoril",2,1,0.997
1,1,21,1,4,30,3,"Maunoet",2,1,0.838
1,1,21,1,4,31,0,"jetzig",1,1,0.895
1,1,21,1,4,32,3,"Ktiio",2,1,0.543
1,1,21,1,4,33,0,"Fluss",1,1,0.494
1,1,21,1,4,34,2,"ratlach",2,1,0.782
1,1,21,1,4,35,0,"Partei",1,1,0.591
1,1,21,1,4,36,1,"Klause",2,0,1.974
1,1,21,1,4,37,1,"kichern",1,1,0.567
1,1,21,1,4,38,0,"zuerst",1,1,0.558
1,1,21,1,4,39,3,"Rnlihul",2,1,0.574
1,1,21,1,4,40,3,"Mtäofu",2,1,0.598
1,1,21,1,4,41,2,"Wormo",2,1,0.67
1,1,21,1,4,42,2,"hackan",2,1,0.903
1,1,21,1,4,43,1,"bankrott",1,1,0.814
1,1,21,1,4,44,2,"Banben",2,1,0.798
1,1,21,1,4,45,1,"Liedtext",1,1,0.719
1,1,21,1,4,46,1,"Pfütze",1,1,0.639
1,1,21,1,4,47,3,"zaecaln",2,1,0.678
1,1,21,1,4,48,2,"Duckeng",2,1,0.991
1,1,21,1,4,49,3,"Köögiehr",2,1,0.742
1,1,21,1,4,50,1,"Seeweg",1,1,0.695
1,1,21,1,4,51,1,"indes",1,1,1.407
1,1,21,1,4,52,2,"Forstin",2,1,1.565
1,1,21,1,4,53,0,"Gesicht",1,1,0.479
1,1,21,1,4,54,0,"einzeln",1,1,0.669
1,1,21,1,4,55,2,"Kropa",2,1,0.87
1,1,21,1,4,56,3,"ieuaa",2,1,0.511
1,1,21,1,4,57,2,"tadollos",2,1,1.158
1,1,21,1,4,58,0,"üblich",1,1,0.654
1,1,21,1,4,59,0,"durch",1,1,0.622
1,1,21,1,4,60,2,"Jarir",2,1,0.559
1,1,21,1,4,61,1,"erbosen",1,1,0.734
1,1,21,1,4,62,2,"Harong",2,1,0.821
1,1,21,1,4,63,1,"achtlos",1,1,0.623
1,1,21,1,4,64,2,"Qeate",2,1,0.565
1,1,21,1,4,65,2,"Ponzar",2,1,0.718
1,1,21,1,4,66,2,"sporsem",2,1,0.758
1,1,21,1,4,67,2,"Klaant",2,1,0.519
1,1,21,1,4,68,0,"behalten",1,1,0.583
1,1,21,1,4,69,3,"nalnooa",2,1,0.494
1,1,21,1,4,70,3,"Dooßt",2,1,0.63
1,1,21,1,4,71,1,"Gerste",1,1,0.75
1,1,21,1,4,72,0,"Sekunde",1,1,0.494
1,1,21,1,4,73,1,"Fetzen",1,1,0.854
1,1,21,1,4,74,3,"Becmea",2,1,0.543
1,1,21,1,4,75,2,"Gahstoeg",2,1,0.558
1,1,21,1,4,76,3,"Tohic",2,1,0.686
1,1,21,1,4,77,3,"Piiitl",2,1,0.598
1,1,21,1,4,78,3,"Oeretcm",2,1,0.533
1,1,21,1,4,79,0,"viert",1,1,1.91
1,1,21,1,4,80,1,"Hacke",1,1,1.167
1,1,21,1,4,81,0,"denken",1,1,0.598
1,1,21,1,4,82,3,"Räuoese",2,1,0.606
1,1,21,1,4,83,1,"Träumer",1,1,0.558
1,1,21,1,4,84,2,"gotrist",2,1,0.583
1,1,21,1,4,85,0,"früher",1,1,0.533
1,1,21,1,4,86,1,"Trabant",1,1,0.734
1,1,21,1,4,87,1,"löchrig",1,1,0.654
1,1,21,1,4,88,1,"Karpfen",1,1,0.566
1,1,21,1,4,89,2,"Sunitor",2,1,1.015
1,1,21,1,4,90,2,"Hordwara",2,1,0.614
1,1,21,1,4,91,0,"Schluss",1,1,0.54
1,1,21,1,4,92,2,"Pongein",2,1,0.783
1,1,21,1,4,93,2,"Fatur",2,1,0.838
1,1,21,1,4,94,3,"Wluheb",2,1,0.582
1,1,21,1,4,95,3,"Luifi",2,1,0.51
1,1,21,1,4,96,3,"Krsleeg",2,1,0.566
1,1,21,1,4,97,2,"Fassul",2,1,1.03
1,1,21,1,4,98,3,"Soszwci",2,1,0.503
1,1,21,1,4,99,3,"leelee",2,1,0.703
1,1,21,1,4,100,1,"Zeitlupe",1,1,0.614
1,1,21,1,4,101,0,"zuvor",1,1,0.646
1,1,21,1,4,102,1,"Longe",1,1,1.302
1,1,21,1,4,103,0,"Verdacht",1,1,2.007
1,1,21,1,4,104,0,"Fahrt",1,1,1.382
1,1,21,1,5,5,2,"Schitto",2,1,0.67
1,1,21,1,5,6,3,"Geuuer",2,1,0.551
1,1,21,1,5,7,0,"einladen",1,1,0.535
1,1,21,1,5,8,0,"Kamera",1,1,0.535
1,1,21,1,5,9,0,"Motiv",1,1,0.534
1,1,21,1,5,10,3,"Tustlr",2,1,0.557
1,1,21,1,5,11,1,"Kerker",1,1,0.806
1,1,21,1,5,12,0,"liefern",1,1,0.511
1,1,21,1,5,13,3,"Maoeubn",2,1,0.591
1,1,21,1,5,14,1,"Maibaum",1,1,0.607
1,1,21,1,5,15,0,"direkt",1,1,0.478
1,1,21,1,5,16,1,"eminent",1,1,1.015
1,1,21,1,5,17,0,"Wunsch",1,1,0.566
1,1,21,1,5,18,0,"Mauer",1,1,0.51
1,1,21,1,5,19,3,"Kevmv",2,1,0.558
1,1,21,1,5,20,1,"zähmen",1,1,0.503
1,1,21,1,5,21,1,"Tegel",2,0,1.222
1,1,21,1,5,22,1,"Näher",1,1,1.086
1,1,21,1,5,23,2,"Daktot",2,1,0.702
1,1,21,1,5,24,3,"Bortenk",2,1,0.703
1,1,21,1,5,25,0,"wenig",1,1,0.646
1,1,21,1,5,26,0,"kommend",1,1,0.591
1,1,21,1,5,27,2,"orlebt",2,1,0.75
1,1,21,1,5,28,1,"Kubus",1,1,1.383
1,1,21,1,5,29,3,"Fncfi",2,1,0.534
1,1,21,1,5,30,0,"bevor",1,1,0.51
1,1,21,1,5,31,3,"Ladge",2,1,0.743
1,1,21,1,5,32,1,"Bestie",1,1,0.631
1,1,21,1,5,33,2,"Handert",2,1,0.79
1,1,21,1,5,34,0,"Hoffnung",1,1,0.566
1,1,21,1,5,35,2,"golegort",2,1,0.846
1,1,21,1,5,36,1,"Stuck",2,0,0.735
1,1,21,1,5,37,0,"Bezirk",1,1,0.831
1,1,21,1,5,38,0,"Album",1,1,0.59
1,1,21,1,5,39,2,"Paesoa",2,1,0.606
1,1,21,1,5,40,2,"Minko",2,1,0.727
1,1,21,1,5,41,0,"Dauer",1,1,0.51
1,1,21,1,5,42,2,"Serbu",2,1,0.511
1,1,21,1,5,43,0,"Stärke",1,1,0.55
1,1,21,1,5,44,2,"biußun",2,1,0.55
1,1,21,1,5,45,1,"Bürde",1,1,1.126
1,1,21,1,5,46,2,"uppig",1,0,1.334
1,1,21,1,5,47,1,"umhin",2,0,1.15
1,1,21,1,5,48,1,"Genom",1,1,0.895
1,1,21,1,5,49,0,"berühmt",1,1,0.559
1,1,21,1,5,50,0,"Bereich",1,1,0.526
1,1,21,1,5,51,3,"Kltnh",2,1,0.583
1,1,21,1,5,52,3,"Seeri",2,1,0.854
1,1,21,1,5,53,3,"Laeehi",2,1,0.983
1,1,21,1,5,54,0,"Antrag",1,1,0.598
1,1,21,1,5,55,2,"Ingal",2,1,0.743
1,1,21,1,5,56,2,"Spett",2,1,0.887
1,1,21,1,5,57,2,"Kipftech",2,1,0.975
1,1,21,1,5,58,1,"Algebra",1,1,0.974
1,1,21,1,5,59,3,"Fonoan",2,1,0.686
1,1,21,1,5,60,1,"laben",1,1,1.215
1,1,21,1,5,61,0,"Branche",1,1,1.199
1,1,21,1,5,62,3,"Eupda",2,1,0.678
1,1,21,1,5,63,3,"stkrese",2,1,0.622
1,1,21,1,5,64,0,"Bühne",1,1,0.517
1,1,21,1,5,65,2,"Anrocht",2,1,0.695
1,1,21,1,5,66,2,"Gagant",2,1,1.582
1,1,21,1,5,67,1,"Glatze",1,1,0.63
1,1,21,1,5,68,3,"gastfaä",2,1,0.511
1,1,21,1,5,69,0,"unklar",1,1,0.59
1,1,21,1,5,70,0,"daher",1,1,0.551
1,1,21,1,5,71,2,"Bunus",2,1,0.607
1,1,21,1,5,72,3,"Blnwr",2,1,0.502
1,1,21,1,5,73,3,"oelfrs",2,1,0.55
1,1,21,1,5,74,1,"Nachbau",1,1,0.902
1,1,21,1,5,75,3,"Scoatn",2,1,0.55
1,1,21,1,5,76,2,"Fuhni",2,1,0.646
1,1,21,1,5,77,0,"kündigen",1,1,0.605
1,1,21,1,5,78,3,"fmgeakhn",2,1,0.518
1,1,21,1,5,79,1,"Gegenpol",1,1,0.654
1,1,21,1,5,80,2,"vermusst",2,1,0.702
1,1,21,1,5,81,2,"Fedil",2,1,0.95
1,1,21,1,5,82,2,"veulott",2,1,0.622
1,1,21,1,5,83,3,"Knriwb",2,1,0.478
1,1,21,1,5,84,1,"Taifun",1,1,0.725
1,1,21,1,5,85,3,"Mätgu",2,1,0.583
1,1,21,1,5,86,2,"Rempf",2,1,0.655
1,1,21,1,5,87,3,"Betuutt",2,1,0.607
1,1,21,1,5,88,1,"Kalif",1,1,0.711
1,1,21,1,5,89,3,"Zostn",2,1,0.582
1,1,21,1,5,90,3,"Cablz",2,1,0.678
1,1,21,1,5,91,1,"Jawort",1,1,0.95
1,1,21,1,5,92,1,"bestimmt",1,1,0.75
1,1,21,1,5,93,2,"Trieing",2,1,0.71
1,1,21,1,5,94,0,"schön",1,1,0.503
1,1,21,1,5,95,0,"Feier",1,1,0.532
1,1,21,1,5,96,1,"Prothese",1,1,2.078
1,1,21,1,5,97,2,"Knarps",2,1,0.902
1,1,21,1,5,98,1,"Poster",1,1,0.596
1,1,21,1,5,99,2,"Mastar",2,1,0.974
1,1,21,1,5,100,2,"Kurps",2,1,0.894
1,1,21,1,5,101,1,"Andante",1,1,1.678
1,1,21,1,5,102,3,"aöhrg",2,1,0.574
1,1,21,1,5,103,1,"leger",1,1,0.822
1,1,21,1,5,104,3,"Artveu",2,1,0.662
1,1,21,1,6,5,3,"hpwwnze",2,1,0.511
1,1,21,1,6,6,0,"Gesetz",1,1,0.526
1,1,21,1,6,7,3,"Llnug",2,1,0.527
1,1,21,1,6,8,2,"Pussagu",2,1,0.526
1,1,21,1,6,9,2,"empert",2,1,0.807
1,1,21,1,6,10,0,"erinnern",1,1,0.535
1,1,21,1,6,11,2,"Idoul",2,1,0.63
1,1,21,1,6,12,2,"Siglar",2,1,1.007
1,1,21,1,6,13,3,"Woideit",2,1,0.598
1,1,21,1,6,14,1,"Schaft",2,0,1.086
1,1,21,1,6,15,3,"Brrii",2,1,1.039
1,1,21,1,6,16,3,"Aadalmt",2,1,0.543
1,1,21,1,6,17,1,"taumeln",1,1,0.855
1,1,21,1,6,18,3,"Haeabi",2,1,0.534
1,1,21,1,6,19,2,"besorgin",2,1,0.799
1,1,21,1,6,20,0,"bessern",1,1,0.607
1,1,21,1,6,21,2,"Emkroos",2,1,0.502
1,1,21,1,6,22,1,"blinzeln",1,1,0.693
1,1,21,1,6,23,0,"Klima",1,1,0.478
1,1,21,1,6,24,0,"Rathaus",1,1,0.534
1,1,21,1,6,25,3,"Ftmheemr",2,1,0.646
1,1,21,1,6,26,0,"Marke",1,1,0.543
1,1,21,1,6,27,1,"Steig",1,1,0.67
1,1,21,1,6,28,2,"guruum",2,1,0.495
1,1,21,1,6,29,1,"wallen",1,1,1.046
1,1,21,1,6,30,3,"iukeenir",2,1,0.542
1,1,21,1,6,31,1,"wackelig",1,1,0.654
1,1,21,1,6,32,2,"Spirti",2,1,0.678
1,1,21,1,6,33,0,"Wachstum",1,1,0.687
1,1,21,1,6,34,3,"Loounaen",2,1,0.671
1,1,21,1,6,35,1,"vollauf",1,1,1.455
1,1,21,1,6,36,3,"Äblldsld",2,1,0.526
1,1,21,1,6,37,3,"Pootonn",2,1,0.534
1,1,21,1,6,38,0,"schlecht",1,1,0.703
1,1,21,1,6,39,1,"Mythe",1,1,1.391
1,1,21,1,6,40,0,"Einnahme",1,1,0.751
1,1,21,1,6,41,0,"Franke",1,1,0.662
1,1,21,1,6,42,1,"abhauen",1,1,0.59
1,1,21,1,6,43,1,"Hundekot",1,1,0.686
1,1,21,1,6,44,3,"Ntawwl",2,1,0.534
1,1,21,1,6,45,0,"Truppe",1,1,0.63
1,1,21,1,6,46,1,"Spätlese",1,1,0.702
1,1,21,1,6,47,3,"tmrncad",2,1,0.695
1,1,21,1,6,48,2,"oblinkon",2,1,1.278
1,1,21,1,6,49,1,"Abscheu",1,1,0.59
1,1,21,1,6,50,2,"erhilan",2,1,0.59
1,1,21,1,6,51,3,"Bemir",2,1,0.535
1,1,21,1,6,52,1,"Lüftung",1,1,0.591
1,1,21,1,6,53,0,"mächtig",1,1,0.583
1,1,21,1,6,54,1,"Geheiß",1,1,0.631
1,1,21,1,6,55,3,"Raffmh",2,1,0.703
1,1,21,1,6,56,2,"Etega",2,1,0.686
1,1,21,1,6,57,1,"Staude",1,1,0.815
1,1,21,1,6,58,0,"Zimmer",1,1,0.558
1,1,21,1,6,59,1,"ködern",1,1,0.798
1,1,21,1,6,60,2,"Anduz",2,1,0.598
1,1,21,1,6,61,3,"aöbhitn",2,1,0.598
1,1,21,1,6,62,3,"rlhkoa",2,1,0.47
1,1,21,1,6,63,2,"Erliaber",2,1,1.094
1,1,21,1,6,64,2,"wuckuln",2,1,0.973
1,1,21,1,6,65,2,"Jahrbach",2,1,1.303
1,1,21,1,6,66,1,"Unwille",1,1,0.783
1,1,21,1,6,67,3,"laottn",2,1,0.79
1,1,21,1,6,68,2,"Manchnir",2,1,0.654
1,1,21,1,6,69,1,"Parkdeck",1,1,1.014
1,1,21,1,6,70,2,"konturn",2,1,1.829
1,1,21,1,6,71,3,"Mumdw",2,1,0.502
1,1,21,1,6,72,1,"zögernd",1,1,0.63
1,1,21,1,6,73,3,"ranpezd",2,1,0.615
1,1,21,1,6,74,2,"Ihrwurm",2,1,0.79
1,1,21,1,6,75,0,"Phase",1,1,0.614
1,1,21,1,6,76,0,"dennoch",1,1,0.614
1,1,21,1,6,77,0,"Stellung",1,1,0.462
1,1,21,1,6,78,0,"Vorbild",1,1,0.574
1,1,21,1,6,79,1,"fluten",1,1,2.054
1,1,21,1,6,80,2,"skarral",2,1,0.735
1,1,21,1,6,81,3,"Neigaa",2,1,0.702
1,1,21,1,6,82,0,"sterben",1,1,0.551
1,1,21,1,6,83,2,"Risirvot",2,1,0.63
1,1,21,1,6,84,1,"Wiesn",1,1,1.511
1,1,21,1,6,85,0,"leisten",1,1,1.246
1,1,21,1,6,86,1,"Aufdruck",1,1,0.631
1,1,21,1,6,87,0,"entgegen",1,1,0.694
1,1,21,1,6,88,3,"Tonaml",2,1,1.894
1,1,21,1,6,89,3,"Qdlmaco",2,1,0.51
1,1,21,1,6,90,0,"Kaiser",1,1,0.573
1,1,21,1,6,91,0,"häufig",1,1,0.558
1,1,21,1,6,92,3,"sohla",2,1,0.591
1,1,21,1,6,93,3,"Setiee",2,1,0.631
1,1,21,1,6,94,0,"vorher",1,1,0.543
1,1,21,1,6,95,2,"folmusch",2,1,0.599
1,1,21,1,6,96,2,"Kilemnu",2,1,0.582
1,1,21,1,6,97,0,"Abschied",1,1,0.631
1,1,21,1,6,98,1,"Trance",1,1,0.822
1,1,21,1,6,99,1,"trällern",1,1,0.791
1,1,21,1,6,100,2,"mirlan",2,1,0.71
1,1,21,1,6,101,1,"Füllung",1,1,0.511
1,1,21,1,6,102,2,"prifen",2,1,0.83
1,1,21,1,6,103,0,"sondern",1,1,0.863
1,1,21,1,6,104,2,"Wunkul",2,1,0.535
1,1,21,1,7,5,0,"mehrere",1,1,0.566
1,1,21,1,7,6,1,"Obelisk",1,1,3.713
1,1,21,1,7,7,1,"Chaot",1,1,0.574
1,1,21,1,7,8,3,"Tlrluoe",2,1,0.607
1,1,21,1,7,9,1,"Tagebau",1,1,0.671
1,1,21,1,7,10,0,"darüber",1,1,0.559
1,1,21,1,7,11,0,"schätzen",1,1,0.504
1,1,21,1,7,12,1,"Radikale",1,1,0.712
1,1,21,1,7,13,3,"Sekulr",2,1,0.775
1,1,21,1,7,14,2,"Kiron",2,1,0.704
1,1,21,1,7,15,2,"Faskes",2,1,0.913
1,1,21,1,7,16,2,"abermils",2,1,2.535
1,1,21,1,7,17,3,"Aabanzn",2,1,0.551
1,1,21,1,7,18,3,"Mvsdagn",2,1,0.455
1,1,21,1,7,19,1,"Sippe",1,1,0.84
1,1,21,1,7,20,0,"Frühjahr",1,1,0.544
1,1,21,1,7,21,2,"guwoltug",2,1,0.543
1,1,21,1,7,22,1,"Trailer",1,1,0.551
1,1,21,1,7,23,3,"srnsfln",2,1,0.504
1,1,21,1,7,24,1,"Syntax",1,1,0.761
1,1,21,1,7,25,2,"absihbir",2,1,0.471
1,1,21,1,7,26,0,"Nutzung",1,1,0.529
1,1,21,1,7,27,3,"tagseln",2,1,1.527
1,1,21,1,7,28,2,"Towir",2,1,0.736
1,1,21,1,7,29,3,"bunnerdk",2,1,0.584
1,1,21,1,7,30,3,"seftea",2,1,0.688
1,1,21,1,7,31,0,"treten",1,1,0.832
1,1,21,1,7,32,3,"Rugzmt",2,1,0.551
1,1,21,1,7,33,0,"anfangen",1,1,0.688
1,1,21,1,7,34,2,"Aosgung",2,1,0.582
1,1,21,1,7,35,1,"ehrbar",1,1,1.031
1,1,21,1,7,36,3,"Uesta",2,1,0.631
1,1,21,1,7,37,1,"Wimper",1,1,0.623
1,1,21,1,7,38,1,"Korso",1,1,0.888
1,1,21,1,7,39,2,"ormoßegt",2,1,0.855
1,1,21,1,7,40,0,"Stimmung",1,1,0.599
1,1,21,1,7,41,0,"Funktion",1,1,0.6
1,1,21,1,7,42,1,"Genossin",1,1,0.784
1,1,21,1,7,43,3,"Wülhrg",2,1,0.623
1,1,21,1,7,44,3,"Snnaishd",2,1,0.592
1,1,21,1,7,45,2,"Iirbig",2,1,0.671
1,1,21,1,7,46,0,"Strecke",1,1,0.607
1,1,21,1,7,47,0,"Schutz",1,1,0.559
1,1,21,1,7,48,3,"Krndha",2,1,0.584
1,1,21,1,7,49,1,"Badehose",1,1,0.6
1,1,21,1,7,50,1,"Loblied",1,1,0.903
1,1,21,1,7,51,0,"Münchner",1,1,0.768
1,1,21,1,7,52,2,"hulprog",2,1,0.824
1,1,21,1,7,53,0,"ergeben",1,1,0.591
1,1,21,1,7,54,2,"staonun",2,1,0.641
1,1,21,1,7,55,3,"Mepmi",2,1,0.647
1,1,21,1,7,56,2,"vartan",2,1,0.791
1,1,21,1,7,57,2,"suuveron",2,1,0.67
1,1,21,1,7,58,3,"Lrhaerk",2,1,0.631
1,1,21,1,7,59,3,"Srtii",2,1,0.527
1,1,21,1,7,60,2,"Jangsti",2,1,0.551
1,1,21,1,7,61,1,"Replik",2,0,1.255
1,1,21,1,7,62,0,"Blatt",1,1,0.591
1,1,21,1,7,63,1,"Etikette",1,1,0.687
1,1,21,1,7,64,3,"Zäsor",2,1,1.055
1,1,21,1,7,65,2,"Pirzilla",2,1,0.679
1,1,21,1,7,66,0,"Adresse",1,1,0.791
1,1,21,1,7,67,0,"wenden",1,1,0.615
1,1,21,1,7,68,0,"scharf",1,1,0.487
1,1,21,1,7,69,1,"Puffer",1,1,0.59
1,1,21,1,7,70,1,"Sklerose",2,0,2.678
1,1,21,1,7,71,3,"Biiece",2,1,0.63
1,1,21,1,7,72,3,"Gutbnem",2,1,0.63
1,1,21,1,7,73,1,"abwälzen",1,1,1.375
1,1,21,1,7,74,0,"mittel",1,1,0.567
1,1,21,1,7,75,2,"Graßwort",2,1,1.43
1,1,21,1,7,76,3,"Srchrl",2,1,0.511
1,1,21,1,7,77,1,"Kursaal",1,1,1.319
1,1,21,1,7,78,0,"planen",1,1,1.662
1,1,21,1,7,79,1,"sehnlich",1,1,2.847
1,1,21,1,7,80,3,"Tlehio",2,1,1.223
1,1,21,1,7,81,2,"Vokil",2,1,0.551
1,1,21,1,7,82,0,"Ausnahme",1,1,0.567
1,1,21,1,7,83,2,"Flagul",2,1,0.782
1,1,21,1,7,84,1,"Advokat",1,1,1.159
1,1,21,1,7,85,2,"ginotzt",2,1,0.743
1,1,21,1,7,86,0,"Grüne",1,1,0.591
1,1,21,1,7,87,0,"führend",1,1,0.758
1,1,21,1,7,88,2,"Isruolu",2,1,0.751
1,1,21,1,7,89,3,"Lomgjii",2,1,0.678
1,1,21,1,7,90,1,"Marder",1,1,0.815
1,1,21,1,7,91,3,"Sotln",2,1,0.597
1,1,21,1,7,92,2,"Orwild",2,1,0.966
1,1,21,1,7,93,1,"Grinsen",1,1,0.583
1,1,21,1,7,94,2,"Importa",2,1,1.751
1,1,21,1,7,95,1,"wippen",1,1,0.526
1,1,21,1,7,96,0,"statt",1,1,0.511
1,1,21,1,7,97,0,"ziemlich",1,1,0.551
1,1,21,1,7,98,2,"kuroas",2,1,0.959
1,1,21,1,7,99,3,"Kulbko",2,1,0.719
1,1,21,1,7,100,2,"nemmer",2,1,1.582
1,1,21,1,7,101,1,"Erstliga",1,1,0.751
1,1,21,1,7,102,3,"aella",2,1,0.583
1,1,21,1,7,103,0,"singen",1,1,0.575
1,1,21,1,7,104,2,"schnaion",2,1,0.815
1,1,21,1,8,5,1,"Orgie",1,1,0.735
1,1,21,1,8,6,0,"Umsatz",1,1,0.535
1,1,21,1,8,7,3,"Pkroso",2,1,0.653
1,1,21,1,8,8,0,"daran",1,1,0.567
1,1,21,1,8,9,3,"Tikeuh",2,1,0.615
1,1,21,1,8,10,3,"eölblnr",2,1,0.559
1,1,21,1,8,11,0,"fühlen",1,1,0.543
1,1,21,1,8,12,3,"möitle",2,1,0.542
1,1,21,1,8,13,3,"Meacol",2,1,0.647
1,1,21,1,8,14,2,"Kanvii",2,1,0.639
1,1,21,1,8,15,1,"Wirre",1,1,0.735
1,1,21,1,8,16,1,"Parken",1,1,0.775
1,1,21,1,8,17,2,"Wandling",2,1,0.887
1,1,21,1,8,18,0,"merken",1,1,0.478
1,1,21,1,8,19,0,"männlich",1,1,0.535
1,1,21,1,8,20,2,"iolag",2,1,0.67
1,1,21,1,8,21,3,"Kenyish",2,1,0.799
1,1,21,1,8,22,0,"schlagen",1,1,0.647
1,1,21,1,8,23,2,"Furuun",2,1,0.703
1,1,21,1,8,24,2,"ubrifbur",2,1,0.695
1,1,21,1,8,25,1,"Britin",1,1,0.767
1,1,21,1,8,26,3,"doeäii",2,1,0.559
1,1,21,1,8,27,1,"anraten",1,1,0.663
1,1,21,1,8,28,2,"schuor",2,1,0.679
1,1,21,1,8,29,3,"zepaee",2,1,0.559
1,1,21,1,8,30,2,"omisont",2,1,0.567
1,1,21,1,8,31,1,"Gorilla",1,1,0.623
1,1,21,1,8,32,1,"Steppe",1,1,0.759
1,1,21,1,8,33,3,"Pafget",2,1,0.647
1,1,21,1,8,34,2,"Assoy",2,1,0.886
1,1,21,1,8,35,2,"ixklasiv",2,1,0.854
1,1,21,1,8,36,2,"lucht",2,1,0.75
1,1,21,1,8,37,0,"schlimm",1,1,0.567
1,1,21,1,8,38,1,"Ketschup",2,0,0.775
1,1,21,1,8,39,0,"klären",1,1,1.887
1,1,21,1,8,40,1,"Pendel",1,1,0.75
1,1,21,1,8,41,3,"dngpu",2,1,0.807
1,1,21,1,8,42,2,"foaburn",2,1,0.646
1,1,21,1,8,43,3,"Koenr",2,1,0.581
1,1,21,1,8,44,3,"hoilte",2,1,0.935
1,1,21,1,8,45,1,"Essenz",1,1,0.647
1,1,21,1,8,46,3,"Leleir",2,1,0.599
1,1,21,1,8,47,0,"Treffer",1,1,0.63
1,1,21,1,8,48,1,"Punsch",1,1,0.813
1,1,21,1,8,49,0,"links",1,1,0.503
1,1,21,1,8,50,0,"Zustand",1,1,0.703
1,1,21,1,8,51,2,"arlettin",2,1,0.671
1,1,21,1,8,52,1,"ausarten",1,1,0.935
1,1,21,1,8,53,3,"Ouller",2,1,0.671
1,1,21,1,8,54,0,"August",1,1,0.551
1,1,21,1,8,55,0,"selber",1,1,0.639
1,1,21,1,8,56,0,"antreten",1,1,0.703
1,1,21,1,8,57,1,"ungestüm",1,1,0.839
1,1,21,1,8,58,2,"luyel",2,1,0.607
1,1,21,1,8,59,0,"Eindruck",1,1,0.551
1,1,21,1,8,60,3,"aehspn",2,1,0.527
1,1,21,1,8,61,3,"Vnbea",2,1,0.568
1,1,21,1,8,62,1,"Pacht",1,1,0.551
1,1,21,1,8,63,2,"Zyklis",2,1,0.751
1,1,21,1,8,64,3,"aäfct",2,1,0.623
1,1,21,1,8,65,1,"Schmach",1,1,0.639
1,1,21,1,8,66,1,"drahtlos",1,1,0.687
1,1,21,1,8,67,3,"Fodeue",2,1,0.894
1,1,21,1,8,68,1,"Zugewinn",1,1,0.703
1,1,21,1,8,69,1,"Silikon",1,1,0.943
1,1,21,1,8,70,1,"galant",1,1,1.166
1,1,21,1,8,71,0,"vorlegen",1,1,0.975
1,1,21,1,8,72,1,"Likör",1,1,0.646
1,1,21,1,8,73,0,"Stein",1,1,0.479
1,1,21,1,8,74,0,"Fahrer",1,1,0.479
1,1,21,1,8,75,0,"prüfen",1,1,0.543
1,1,21,1,8,76,3,"Yarur",2,1,0.914
1,1,21,1,8,77,1,"Einakter",1,1,0.895
1,1,21,1,8,78,2,"Kreppe",2,1,1.527
1,1,21,1,8,79,1,"morbid",2,0,0.695
1,1,21,1,8,80,2,"fektav",2,1,1.143
1,1,21,1,8,81,2,"Pircuirs",2,1,0.831
1,1,21,1,8,82,2,"illumol",2,1,0.967
1,1,21,1,8,83,2,"Kudux",2,1,0.583
1,1,21,1,8,84,2,"Chenisu",2,1,0.879
1,1,21,1,8,85,3,"Diaujet",2,1,0.815
1,1,21,1,8,86,0,"betont",1,1,0.679
1,1,21,1,8,87,2,"lustan",2,1,0.695
1,1,21,1,8,88,0,"Karte",1,1,0.551
1,1,21,1,8,89,3,"Didenir",2,1,0.679
1,1,21,1,8,90,3,"Ficos",2,1,0.863
1,1,21,1,8,91,2,"Synada",2,1,0.958
1,1,21,1,8,92,1,"Kanne",1,1,0.583
1,1,21,1,8,93,2,"Ployer",2,1,0.638
1,1,21,1,8,94,3,"Ohßfneß",2,1,0.614
1,1,21,1,8,95,3,"Aufrwtn",2,1,0.567
1,1,21,1,8,96,1,"krähen",1,1,0.639
1,1,21,1,8,97,2,"Zaptor",2,1,0.967
1,1,21,1,8,98,1,"wedeln",1,1,0.879
1,1,21,1,8,99,3,"Soicigei",2,1,0.511
1,1,21,1,8,100,0,"Szene",1,1,0.631
1,1,21,1,8,101,0,"ankommen",1,1,0.639
1,1,21,1,8,102,0,"Ursache",1,1,0.55
1,1,21,1,8,103,0,"streng",1,1,0.519
1,1,21,1,8,104,2,"Bosenuss",2,1,1.006
1,1,21,2,1,5,3,"Sersrnu",2,1,0.694
1,1,21,2,1,6,2,"Qoontott",2,1,0.546
1,1,21,2,1,7,3,"Gearko",2,1,0.815
1,1,21,2,1,8,0,"erklärt",1,1,0.59
1,1,21,2,1,9,0,"füllen",1,1,0.559
1,1,21,2,1,10,2,"Vereiblu",2,1,0.879
1,1,21,2,1,11,2,"Sessol",2,1,0.718
1,1,21,2,1,12,3,"Oardaa",2,1,0.723
1,1,21,2,1,13,3,"Gidonerg",2,1,0.558
1,1,21,2,1,14,2,"gawerdun",2,1,0.558
1,1,21,2,1,15,2,"hirrloch",2,1,0.439
1,1,21,2,1,16,1,"Rezeptur",1,1,0.951
1,1,21,2,1,17,1,"betören",1,1,1.07
1,1,21,2,1,18,1,"Mulde",1,1,0.671
1,1,21,2,1,19,2,"Taefa",2,1,0.702
1,1,21,2,1,20,0,"Festival",1,1,0.695
1,1,21,2,1,21,1,"Schelte",1,1,0.903
1,1,21,2,1,22,0,"fehlend",1,1,0.671
1,1,21,2,1,23,0,"Besitz",1,1,0.559
1,1,21,2,1,24,1,"herauf",1,1,0.83
1,1,21,2,1,25,0,"FALSCH",1,1,1.477
1,1,21,2,1,26,2,"wickin",2,1,1.086
1,1,21,2,1,27,0,"stets",1,1,0.574
1,1,21,2,1,28,3,"Munabü",2,1,1.103
1,1,21,2,1,29,2,"irzeagt",2,1,0.854
1,1,21,2,1,30,1,"Dirndl",1,1,0.67
1,1,21,2,1,31,3,"Vsslos",2,1,0.543
1,1,21,2,1,32,3,"sorou",2,1,0.63
1,1,21,2,1,33,0,"Viertel",1,1,0.542
1,1,21,2,1,34,1,"absaugen",1,1,0.583
1,1,21,2,1,35,0,"brauchen",1,1,0.495
1,1,21,2,1,36,0,"westlich",1,1,0.487
1,1,21,2,1,37,1,"Pascha",1,1,0.99
1,1,21,2,1,38,2,"Anloihen",2,1,0.645
1,1,21,2,1,39,1,"fetten",1,1,0.511
1,1,21,2,1,40,2,"Mecko",2,1,0.664
1,1,21,2,1,41,0,"intensiv",1,1,0.535
1,1,21,2,1,42,1,"Scholle",1,1,0.534
1,1,21,2,1,43,2,"Versogen",1,0,0.591
1,1,21,2,1,44,2,"Segmant",2,1,0.918
1,1,21,2,1,45,3,"Trioeeu",2,1,0.517
1,1,21,2,1,46,0,"allein",1,1,0.503
1,1,21,2,1,47,2,"Siode",2,1,0.502
1,1,21,2,1,48,3,"Wectf",2,1,0.599
1,1,21,2,1,49,1,"Athener",1,1,0.686
1,1,21,2,1,50,2,"Trana",2,1,0.639
1,1,21,2,1,51,1,"Alemanne",1,1,1.206
1,1,21,2,1,52,1,"Braunbär",1,1,0.519
1,1,21,2,1,53,0,"Gewinn",1,1,0.439
1,1,21,2,1,54,0,"Stern",1,1,0.494
1,1,21,2,1,55,1,"müßig",1,1,0.495
1,1,21,2,1,56,1,"Rüssel",1,1,0.43
1,1,21,2,1,57,1,"wogen",1,1,0.671
1,1,21,2,1,58,3,"Bepsedn",2,1,0.542
1,1,21,2,1,59,0,"seitdem",1,1,0.655
1,1,21,2,1,60,1,"labil",1,1,0.662
1,1,21,2,1,61,0,"warnen",1,1,0.542
1,1,21,2,1,62,0,"enorm",1,1,0.527
1,1,21,2,1,63,0,"Computer",1,1,0.494
1,1,21,2,1,64,3,"lenieene",2,1,0.67
1,1,21,2,1,65,3,"Fiatsh",2,1,0.591
1,1,21,2,1,66,1,"demütig",1,1,0.559
1,1,21,2,1,67,2,"Workzaag",2,1,0.551
1,1,21,2,1,68,2,"Uismuß",2,1,0.59
1,1,21,2,1,69,0,"weder",1,1,0.573
1,1,21,2,1,70,2,"Verlugar",2,1,0.806
1,1,21,2,1,71,2,"Ibflass",2,1,0.567
1,1,21,2,1,72,2,"Nackun",2,1,0.741
1,1,21,2,1,73,3,"Peaircz",2,1,0.439
1,1,21,2,1,74,3,"suiflrr",2,1,0.495
1,1,21,2,1,75,1,"Nager",1,1,0.503
1,1,21,2,1,76,0,"ablehnen",1,1,0.558
1,1,21,2,1,77,2,"Soeta",2,1,0.543
1,1,21,2,1,78,0,"Haushalt",1,1,0.503
1,1,21,2,1,79,3,"Dorken",2,1,0.886
1,1,21,2,1,80,2,"Gopuck",2,1,0.494
1,1,21,2,1,81,1,"Fernglas",1,1,0.479
1,1,21,2,1,82,1,"gerettet",1,1,0.534
1,1,21,2,1,83,2,"zoteul",2,1,0.519
1,1,21,2,1,84,3,"Qereigt",2,1,0.758
1,1,21,2,1,85,3,"jrdte",2,1,0.566
1,1,21,2,1,86,3,"Kenahn",2,1,0.686
1,1,21,2,1,87,1,"Fachfrau",1,1,0.549
1,1,21,2,1,88,0,"polnisch",1,1,0.59
1,1,21,2,1,89,3,"Eprec",2,1,1.046
1,1,21,2,1,90,3,"khbka",2,1,0.51
1,1,21,2,1,91,1,"umrunden",1,1,0.622
1,1,21,2,1,92,0,"Titel",1,1,0.527
1,1,21,2,1,93,3,"Mahes",2,1,0.51
1,1,21,2,1,94,1,"Fötus",1,1,0.67
1,1,21,2,1,95,0,"Vater",1,1,0.559
1,1,21,2,1,96,0,"sammeln",1,1,0.518
1,1,21,2,1,97,2,"Kerheus",2,1,0.663
1,1,21,2,1,98,3,"Fiwgn",2,1,0.575
1,1,21,2,1,99,3,"Ueleta",2,1,0.567
1,1,21,2,1,100,2,"porut",2,1,0.734
1,1,21,2,1,101,3,"gcrirt",2,1,0.599
1,1,21,2,1,102,3,"sytpnisz",2,1,0.447
1,1,21,2,1,103,2,"Manepel",2,1,0.725
1,1,21,2,1,104,1,"Sunnit",2,0,1.959
1,1,21,2,2,5,1,"kalauern",2,0,0.71
1,1,21,2,2,6,0,"zwingen",1,1,0.647
1,1,21,2,2,7,1,"erholt",1,1,0.583
1,1,21,2,2,8,0,"Schuss",1,1,0.446
1,1,21,2,2,9,3,"Sortfe",2,1,0.647
1,1,21,2,2,10,2,"Schuf",2,1,2.231
1,1,21,2,2,11,3,"gkneel",2,1,0.582
1,1,21,2,2,12,1,"Manieren",1,1,0.63
1,1,21,2,2,13,1,"Detektor",1,1,1.03
1,1,21,2,2,14,3,"Rorantt",2,1,0.591
1,1,21,2,2,15,1,"Karaoke",1,1,0.559
1,1,21,2,2,16,1,"Postbote",1,1,0.591
1,1,21,2,2,17,3,"Tenbal",2,1,1.014
1,1,21,2,2,18,3,"Pmess",2,1,0.55
1,1,21,2,2,19,1,"leasen",1,1,0.687
1,1,21,2,2,20,3,"dbpoes",2,1,0.486
1,1,21,2,2,21,3,"Muhhbe",2,1,0.599
1,1,21,2,2,22,0,"Bayer",1,1,0.783
1,1,21,2,2,23,1,"Verlaub",1,1,0.783
1,1,21,2,2,24,1,"Wallach",1,1,0.735
1,1,21,2,2,25,2,"nuidosch",2,1,0.526
1,1,21,2,2,26,1,"gefällt",1,1,0.654
1,1,21,2,2,27,2,"ebhiron",2,1,0.623
1,1,21,2,2,28,2,"Meschoi",2,1,0.606
1,1,21,2,2,29,3,"Hnnatoin",2,1,0.542
1,1,21,2,2,30,3,"Bnonoee",2,1,0.511
1,1,21,2,2,31,3,"mibecaln",2,1,0.775
1,1,21,2,2,32,2,"gamischt",2,1,0.886
1,1,21,2,2,33,1,"zudecken",1,1,1.006
1,1,21,2,2,34,3,"Beoxeui",2,1,0.494
1,1,21,2,2,35,0,"retten",1,1,0.543
1,1,21,2,2,36,1,"Gesteck",1,1,0.758
1,1,21,2,2,37,0,"Spiegel",1,1,0.47
1,1,21,2,2,38,3,"htaku",2,1,0.655
1,1,21,2,2,39,0,"Politik",1,1,0.503
1,1,21,2,2,40,3,"gapwii",2,1,0.567
1,1,21,2,2,41,3,"Delezo",2,1,0.639
1,1,21,2,2,42,0,"Stürmer",1,1,0.543
1,1,21,2,2,43,2,"Irhalt",2,1,1.734
1,1,21,2,2,44,0,"Verband",1,1,0.606
1,1,21,2,2,45,2,"Mugrint",2,1,0.679
1,1,21,2,2,46,1,"Finesse",1,1,1.103
1,1,21,2,2,47,3,"Aeeleefg",2,1,0.583
1,1,21,2,2,48,1,"mucken",1,1,0.574
1,1,21,2,2,49,0,"Zeitung",1,1,0.503
1,1,21,2,2,50,0,"befassen",1,1,1.35
1,1,21,2,2,51,1,"Hochofen",1,1,0.535
1,1,21,2,2,52,1,"Seher",1,1,0.566
1,1,21,2,2,53,0,"stimmen",1,1,0.494
1,1,21,2,2,54,0,"Geist",1,1,0.486
1,1,21,2,2,55,0,"Pflicht",1,1,0.487
1,1,21,2,2,56,0,"Jubiläum",1,1,0.567
1,1,21,2,2,57,2,"giregult",2,1,3.863
1,1,21,2,2,58,3,"Eärsa",2,1,0.766
1,1,21,2,2,59,3,"uotmiek",2,1,0.527
1,1,21,2,2,60,1,"verarmt",1,1,0.846
1,1,21,2,2,61,2,"gazohlt",2,1,0.631
1,1,21,2,2,62,1,"münzen",2,0,1.845
1,1,21,2,2,63,2,"Onzoagor",2,1,0.838
1,1,21,2,2,64,2,"umwerbon",2,1,1.486
1,1,21,2,2,65,0,"bereit",1,1,0.653
1,1,21,2,2,66,2,"Arlabnus",2,1,0.558
1,1,21,2,2,67,0,"Sprecher",1,1,0.503
1,1,21,2,2,68,1,"Zögling",2,0,2.334
1,1,21,2,2,69,2,"Imblem",2,1,0.799
1,1,21,2,2,70,0,"schauen",1,1,0.582
1,1,21,2,2,71,1,"Hertz",1,1,1.062
1,1,21,2,2,72,2,"Breok",2,1,0.606
1,1,21,2,2,73,2,"vurebar",2,1,0.584
1,1,21,2,2,74,3,"Fücfsen",2,1,0.703
1,1,21,2,2,75,3,"eeuii",2,1,0.503
1,1,21,2,2,76,2,"Gifocht",2,1,0.534
1,1,21,2,2,77,3,"Fäfriee",2,1,0.51
1,1,21,2,2,78,3,"mteädg",2,1,0.462
1,1,21,2,2,79,2,"gudenken",2,1,0.775
1,1,21,2,2,80,3,"Tuxtcer",2,1,0.455
1,1,21,2,2,81,0,"Fläche",1,1,0.511
1,1,21,2,2,82,2,"Wocht",2,1,0.727
1,1,21,2,2,83,0,"auslösen",1,1,0.583
1,1,21,2,2,84,0,"Waffe",1,1,0.509
1,1,21,2,2,85,3,"Nlgpkih",2,1,0.655
1,1,21,2,2,86,0,"national",1,1,0.606
1,1,21,2,2,87,1,"Bürozeit",1,1,0.502
1,1,21,2,2,88,2,"rohrund",2,1,1.311
1,1,21,2,2,89,3,"Onlpoec",2,1,0.647
1,1,21,2,2,90,2,"zeirin",2,1,0.751
1,1,21,2,2,91,2,"Baroruem",2,1,0.573
1,1,21,2,2,92,3,"Faictr",2,1,0.462
1,1,21,2,2,93,1,"Foton",2,0,1.111
1,1,21,2,2,94,2,"Niffa",2,1,0.566
1,1,21,2,2,95,2,"Taesind",2,1,0.566
1,1,21,2,2,96,2,"Zirfall",2,1,0.511
1,1,21,2,2,97,2,"gilugt",2,1,0.495
1,1,21,2,2,98,0,"Forscher",1,1,0.543
1,1,21,2,2,99,1,"Abzweig",1,1,0.855
1,1,21,2,2,100,0,"britisch",1,1,0.614
1,1,21,2,2,101,1,"Zivil",1,1,0.591
1,1,21,2,2,102,0,"darunter",1,1,0.527
1,1,21,2,2,103,0,"Firma",1,1,0.502
1,1,21,2,2,104,1,"Populist",1,1,0.759
1,1,21,2,3,5,3,"Pinsial",2,1,0.999
1,1,21,2,3,6,1,"Dritter",1,1,0.526
1,1,21,2,3,7,3,"Sreheii",2,1,0.494
1,1,21,2,3,8,3,"lnzte",2,1,0.655
1,1,21,2,3,9,0,"Angabe",1,1,0.51
1,1,21,2,3,10,2,"nachtug",2,1,0.735
1,1,21,2,3,11,1,"Notwehr",1,1,0.519
1,1,21,2,3,12,2,"Scharbu",2,1,0.607
1,1,21,2,3,13,3,"Vepte",2,1,0.67
1,1,21,2,3,14,2,"rustlis",2,1,0.719
1,1,21,2,3,15,3,"Buseein",2,1,0.639
1,1,21,2,3,16,0,"Prüfung",1,1,0.615
1,1,21,2,3,17,0,"Kultur",1,1,0.511
1,1,21,2,3,18,2,"Wultcup",2,1,0.965
1,1,21,2,3,19,2,"Blusar",2,1,0.695
1,1,21,2,3,20,0,"Kanzler",1,1,0.646
1,1,21,2,3,21,1,"Türkin",1,1,0.751
1,1,21,2,3,22,0,"bedrohen",1,1,0.599
1,1,21,2,3,23,0,"Einsatz",1,1,0.494
1,1,21,2,3,24,3,"Zauguis",2,1,0.695
1,1,21,2,3,25,3,"Zttgretd",2,1,0.559
1,1,21,2,3,26,2,"unstobal",2,1,0.838
1,1,21,2,3,27,0,"bestehen",1,1,0.542
1,1,21,2,3,28,0,"Leitung",1,1,0.486
1,1,21,2,3,29,1,"Sandale",1,1,0.591
1,1,21,2,3,30,3,"Kerdpr",2,1,0.534
1,1,21,2,3,31,3,"aiteua",2,1,0.623
1,1,21,2,3,32,0,"spannend",1,1,0.551
1,1,21,2,3,33,3,"Pmlnep",2,1,0.478
1,1,21,2,3,34,2,"Stirch",2,1,0.735
1,1,21,2,3,35,1,"Wandbild",1,1,0.543
1,1,21,2,3,36,1,"Herrgott",1,1,0.798
1,1,21,2,3,37,2,"Zweng",2,1,0.966
1,1,21,2,3,38,3,"Veeosao",2,1,0.495
1,1,21,2,3,39,0,"Institut",1,1,0.831
1,1,21,2,3,40,0,"Station",1,1,0.671
1,1,21,2,3,41,0,"Premiere",1,1,0.534
1,1,21,2,3,42,0,"General",1,1,0.519
1,1,21,2,3,43,2,"knickig",1,0,0.51
1,1,21,2,3,44,1,"branden",2,0,1.975
1,1,21,2,3,45,1,"Dreher",1,1,0.653
1,1,21,2,3,46,2,"Imbargu",2,1,0.743
1,1,21,2,3,47,1,"wohlauf",1,1,0.663
1,1,21,2,3,48,3,"Aegsrrn",2,1,0.551
1,1,21,2,3,49,2,"Uurpert",2,1,0.558
1,1,21,2,3,50,1,"kotzen",1,1,0.591
1,1,21,2,3,51,0,"drehen",1,1,0.535
1,1,21,2,3,52,2,"Baaplutz",2,1,0.655
1,1,21,2,3,53,2,"Gobesch",2,1,0.759
1,1,21,2,3,54,3,"aotiize",2,1,0.495
1,1,21,2,3,55,2,"Slawoko",2,1,0.583
1,1,21,2,3,56,1,"Unterarm",1,1,0.622
1,1,21,2,3,57,0,"Element",1,1,0.519
1,1,21,2,3,58,2,"Oewuuß",2,1,0.559
1,1,21,2,3,59,0,"fließen",1,1,0.83
1,1,21,2,3,60,1,"Liebende",1,1,1.11
1,1,21,2,3,61,0,"besuchen",1,1,0.583
1,1,21,2,3,62,2,"bogrinzt",2,1,0.559
1,1,21,2,3,63,1,"Walze",1,1,0.862
1,1,21,2,3,64,0,"maximal",1,1,0.582
1,1,21,2,3,65,1,"Äquator",1,1,0.588
1,1,21,2,3,66,3,"kykhoo",2,1,0.574
1,1,21,2,3,67,3,"Bmrrsr",2,1,0.534
1,1,21,2,3,68,2,"uburgruß",2,1,0.718
1,1,21,2,3,69,2,"Sporbech",2,1,0.927
1,1,21,2,3,70,1,"glasklar",1,1,0.75
1,1,21,2,3,71,1,"Hochbau",1,1,0.542
1,1,21,2,3,72,1,"trudeln",1,1,0.655
1,1,21,2,3,73,1,"Rangelei",1,1,0.829
1,1,21,2,3,74,3,"Lngsie",2,1,0.542
1,1,21,2,3,75,1,"zeitig",1,1,0.551
1,1,21,2,3,76,1,"Windböe",1,1,0.743
1,1,21,2,3,77,1,"purzeln",1,1,0.591
1,1,21,2,3,78,3,"Booksu",2,1,0.583
1,1,21,2,3,79,2,"Athlot",2,1,1.022
1,1,21,2,3,80,3,"Wüßstr",2,1,0.919
1,1,21,2,3,81,2,"strockin",2,1,0.878
1,1,21,2,3,82,3,"Ghcaraf",2,1,0.455
1,1,21,2,3,83,2,"Branch",2,1,1.607
1,1,21,2,3,84,2,"aranasch",2,1,1.063
1,1,21,2,3,85,0,"genau",1,1,0.526
1,1,21,2,3,86,3,"Propeid",2,1,1.022
1,1,21,2,3,87,3,"Glrureb",2,1,0.607
1,1,21,2,3,88,0,"erneut",1,1,0.559
1,1,21,2,3,89,0,"Aussage",1,1,0.502
1,1,21,2,3,90,1,"Methan",1,1,0.855
1,1,21,2,3,91,0,"Antwort",1,1,0.613
1,1,21,2,3,92,1,"Sediment",1,1,0.654
1,1,21,2,3,93,3,"Giomaee",2,1,0.542
1,1,21,2,3,94,0,"wirklich",1,1,0.582
1,1,21,2,3,95,2,"stackun",2,1,0.814
1,1,21,2,3,96,0,"Autobahn",1,1,0.519
1,1,21,2,3,97,2,"Onoform",2,1,0.719
1,1,21,2,3,98,3,"Cerwai",2,1,0.535
1,1,21,2,3,99,3,"Oipdrau",2,1,0.598
1,1,21,2,3,100,2,"bihmisch",2,1,0.783
1,1,21,2,3,101,0,"räumen",1,1,0.493
1,1,21,2,3,102,3,"Zablwxg",2,1,0.455
1,1,21,2,3,103,1,"Affront",2,0,1.342
1,1,21,2,3,104,1,"Landwehr",1,1,0.694
1,1,21,2,4,5,3,"Oetthns",2,1,0.526
1,1,21,2,4,6,2,"areffnut",2,1,0.526
1,1,21,2,4,7,3,"Hortedn",2,1,0.535
1,1,21,2,4,8,0,"Leiter",1,1,0.55
1,1,21,2,4,9,2,"engewuss",2,1,0.781
1,1,21,2,4,10,1,"Rührung",1,1,0.694
1,1,21,2,4,11,1,"Anmut",1,1,1.038
1,1,21,2,4,12,1,"Passwort",1,1,0.486
1,1,21,2,4,13,0,"rechnen",1,1,0.454
1,1,21,2,4,14,1,"Isländer",1,1,0.583
1,1,21,2,4,15,3,"Eoslle",2,1,0.606
1,1,21,2,4,16,0,"treiben",1,1,0.526
1,1,21,2,4,17,0,"künftig",1,1,0.479
1,1,21,2,4,18,1,"rieseln",1,1,0.518
1,1,21,2,4,19,1,"pusten",1,1,0.535
1,1,21,2,4,20,1,"seiden",1,1,0.63
1,1,21,2,4,21,0,"zunächst",1,1,0.51
1,1,21,2,4,22,2,"fonster",2,1,0.719
1,1,21,2,4,23,2,"Bofutt",2,1,0.686
1,1,21,2,4,24,3,"Meoierk",2,1,0.598
1,1,21,2,4,25,3,"sitdznh",2,1,0.55
1,1,21,2,4,26,1,"Bauform",1,1,0.582
1,1,21,2,4,27,3,"bekssht",2,1,0.727
1,1,21,2,4,28,2,"zahllas",2,1,0.63
1,1,21,2,4,29,1,"eintönig",1,1,0.854
1,1,21,2,4,30,2,"Modume",2,1,0.782
1,1,21,2,4,31,3,"Clietint",2,1,0.55
1,1,21,2,4,32,2,"varluson",2,1,0.623
1,1,21,2,4,33,2,"welleg",2,1,0.774
1,1,21,2,4,34,0,"englisch",1,1,1.031
1,1,21,2,4,35,2,"Vorgohen",2,1,0.663
1,1,21,2,4,36,1,"Anonymus",1,1,1.239
1,1,21,2,4,37,1,"Zombie",1,1,0.799
1,1,21,2,4,38,0,"Provinz",1,1,0.543
1,1,21,2,4,39,3,"Önhnunn",2,1,0.559
1,1,21,2,4,40,2,"Fonni",2,1,0.727
1,1,21,2,4,41,1,"Drohne",1,1,0.606
1,1,21,2,4,42,3,"Aarkarh",2,1,0.51
1,1,21,2,4,43,3,"Nepuru",2,1,0.734
1,1,21,2,4,44,2,"Forbung",2,1,0.71
1,1,21,2,4,45,0,"speziell",1,1,0.63
1,1,21,2,4,46,0,"Debatte",1,1,0.59
1,1,21,2,4,47,2,"Kalnar",2,1,0.663
1,1,21,2,4,48,2,"obhikan",2,1,0.551
1,1,21,2,4,49,0,"ausgeben",1,1,0.559
1,1,21,2,4,50,3,"Fauetr",2,1,0.878
1,1,21,2,4,51,1,"Scharia",1,1,0.735
1,1,21,2,4,52,2,"Wuhlarin",2,1,0.559
1,1,21,2,4,53,3,"gokbeä",2,1,0.438
1,1,21,2,4,54,0,"Aufbau",1,1,0.535
1,1,21,2,4,55,1,"Hocker",1,1,0.815
1,1,21,2,4,56,2,"tropfin",2,1,0.903
1,1,21,2,4,57,2,"ingitin",2,1,0.919
1,1,21,2,4,58,2,"Pirkhaes",2,1,0.566
1,1,21,2,4,59,3,"Ealslo",2,1,0.39
1,1,21,2,4,60,3,"Wtedht",2,1,0.423
1,1,21,2,4,61,3,"arnlagc",2,1,0.502
1,1,21,2,4,62,0,"Ergebnis",1,1,0.566
1,1,21,2,4,63,1,"kauern",1,1,0.734
1,1,21,2,4,64,0,"rechts",1,1,0.509
1,1,21,2,4,65,0,"aufgeben",1,1,0.479
1,1,21,2,4,66,0,"Galerie",1,1,0.574
1,1,21,2,4,67,1,"Spinner",1,1,0.519
1,1,21,2,4,68,3,"Suebsn",2,1,0.671
1,1,21,2,4,69,0,"Fußball",1,1,0.518
1,1,21,2,4,70,1,"blocken",1,1,0.646
1,1,21,2,4,71,2,"voartel",2,1,0.709
1,1,21,2,4,72,0,"Sorge",1,1,0.511
1,1,21,2,4,73,0,"Freude",1,1,0.567
1,1,21,2,4,74,3,"Tetkgr",2,1,0.606
1,1,21,2,4,75,2,"Uenworf",2,1,0.694
1,1,21,2,4,76,1,"Vignette",1,1,0.679
1,1,21,2,4,77,3,"Ieagtee",2,1,0.494
1,1,21,2,4,78,2,"Obwihr",2,1,0.615
1,1,21,2,4,79,0,"Sendung",1,1,0.543
1,1,21,2,4,80,3,"Bridfh",2,1,0.574
1,1,21,2,4,81,1,"akkurat",1,1,0.917
1,1,21,2,4,82,3,"Tisai",2,1,0.511
1,1,21,2,4,83,3,"Leetlg",2,1,0.607
1,1,21,2,4,84,1,"witzeln",1,1,0.63
1,1,21,2,4,85,3,"Dbemwsr",2,1,0.518
1,1,21,2,4,86,3,"Sseailu",2,1,0.486
1,1,21,2,4,87,2,"Spirgal",2,1,1.181
1,1,21,2,4,88,0,"löschen",1,1,0.942
1,1,21,2,4,89,2,"keppin",2,1,1.213
1,1,21,2,4,90,1,"bewahrt",1,1,0.558
1,1,21,2,4,91,1,"Versager",1,1,0.717
1,1,21,2,4,92,0,"stehlen",1,1,0.646
1,1,21,2,4,93,1,"Zoologie",1,1,0.694
1,1,21,2,4,94,2,"Wiashoot",2,1,0.783
1,1,21,2,4,95,3,"Surkdfn",2,1,0.478
1,1,21,2,4,96,1,"untätig",1,1,0.574
1,1,21,2,4,97,0,"Streit",1,1,0.598
1,1,21,2,4,98,2,"Ehrgaiz",2,1,0.766
1,1,21,2,4,99,0,"daraus",1,1,0.702
1,1,21,2,4,100,0,"handeln",1,1,0.567
1,1,21,2,4,101,1,"klimmen",1,1,1.109
1,1,21,2,4,102,0,"jährlich",1,1,0.534
1,1,21,2,4,103,3,"Wkitei",2,1,0.487
1,1,21,2,4,104,2,"fressun",2,1,0.734
1,1,21,2,5,5,0,"Dienst",1,1,0.582
1,1,21,2,5,6,1,"Nachrede",1,1,0.543
1,1,21,2,5,7,1,"driften",1,1,0.831
1,1,21,2,5,8,0,"Gewalt",1,1,0.455
1,1,21,2,5,9,2,"Merkar",2,1,0.67
1,1,21,2,5,10,0,"längst",1,1,0.494
1,1,21,2,5,11,3,"Petrzi",2,1,0.591
1,1,21,2,5,12,3,"Hueiat",2,1,0.518
1,1,21,2,5,13,1,"immun",1,1,0.687
1,1,21,2,5,14,2,"besassen",2,1,0.887
1,1,21,2,5,15,1,"Gelübde",2,0,0.575
1,1,21,2,5,16,3,"Sreacun",2,1,0.615
1,1,21,2,5,17,1,"schmoren",1,1,0.614
1,1,21,2,5,18,1,"ducken",1,1,0.719
1,1,21,2,5,19,3,"Hohees",2,1,0.631
1,1,21,2,5,20,3,"Drnsctg",2,1,0.653
1,1,21,2,5,21,2,"Krosis",2,1,0.718
1,1,21,2,5,22,0,"Friedhof",1,1,0.678
1,1,21,2,5,23,3,"Bihrs",2,1,0.511
1,1,21,2,5,24,0,"Franzose",1,1,0.678
1,1,21,2,5,25,2,"Koisirun",2,1,0.646
1,1,21,2,5,26,1,"pompös",1,1,0.839
1,1,21,2,5,27,1,"Selige",1,1,0.598
1,1,21,2,5,28,1,"Patron",1,1,0.638
1,1,21,2,5,29,1,"röhren",1,1,0.455
1,1,21,2,5,30,2,"dipan",2,1,0.581
1,1,21,2,5,31,2,"Moarur",2,1,0.695
1,1,21,2,5,32,3,"scaoonr",2,1,0.527
1,1,21,2,5,33,2,"barehen",2,1,0.678
1,1,21,2,5,34,2,"fettern",2,1,2.311
1,1,21,2,5,35,2,"Garagi",2,1,0.791
1,1,21,2,5,36,1,"Schließe",1,1,1.654
1,1,21,2,5,37,2,"grondeos",2,1,0.999
1,1,21,2,5,38,1,"Proton",1,1,0.967
1,1,21,2,5,39,0,"fassen",1,1,0.551
1,1,21,2,5,40,1,"Nachfahr",1,1,2.455
1,1,21,2,5,41,0,"Gegner",1,1,0.591
1,1,21,2,5,42,0,"Vorhaben",1,1,0.621
1,1,21,2,5,43,3,"esese",2,1,0.727
1,1,21,2,5,44,0,"Tempo",1,1,0.663
1,1,21,2,5,45,1,"anleiten",1,1,0.599
1,1,21,2,5,46,1,"obenauf",1,1,0.862
1,1,21,2,5,47,0,"übrigens",1,1,0.839
1,1,21,2,5,48,3,"Rrdteai",2,1,0.55
1,1,21,2,5,49,2,"apropus",2,1,1.503
1,1,21,2,5,50,3,"Datulen",2,1,0.806
1,1,21,2,5,51,3,"Lyriut",2,1,0.871
1,1,21,2,5,52,1,"gesegnet",1,1,0.535
1,1,21,2,5,53,0,"hessisch",1,1,0.463
1,1,21,2,5,54,3,"Jerecrk",2,1,0.567
1,1,21,2,5,55,1,"Rouge",1,1,0.727
1,1,21,2,5,56,3,"Gaftf",2,1,0.478
1,1,21,2,5,57,1,"Hochwald",1,1,0.527
1,1,21,2,5,58,1,"Zerrung",1,1,0.63
1,1,21,2,5,59,2,"Spuzoas",2,1,0.535
1,1,21,2,5,60,3,"Riiobre",2,1,0.558
1,1,21,2,5,61,3,"Cejsti",2,1,0.471
1,1,21,2,5,62,0,"gerecht",1,1,0.662
1,1,21,2,5,63,0,"Gedanke",1,1,0.59
1,1,21,2,5,64,3,"beifun",2,1,0.655
1,1,21,2,5,65,1,"Wahlurne",1,1,0.903
1,1,21,2,5,66,3,"Dmlutlr",2,1,0.478
1,1,21,2,5,67,1,"ackern",1,1,0.742
1,1,21,2,5,68,1,"Hofstaat",1,1,0.743
1,1,21,2,5,69,2,"Glauchi",2,1,0.56
1,1,21,2,5,70,2,"Prepst",2,1,0.758
1,1,21,2,5,71,3,"marlsnn",2,1,0.534
1,1,21,2,5,72,2,"binotogt",2,1,1.199
1,1,21,2,5,73,0,"Objekt",1,1,0.527
1,1,21,2,5,74,2,"darlogen",2,1,0.71
1,1,21,2,5,75,3,"Pulpeu",2,1,0.606
1,1,21,2,5,76,3,"näseib",2,1,0.583
1,1,21,2,5,77,0,"Fenster",1,1,0.526
1,1,21,2,5,78,0,"Spieltag",1,1,0.535
1,1,21,2,5,79,3,"Gadesn",2,1,0.701
1,1,21,2,5,80,2,"fangaort",2,1,0.663
1,1,21,2,5,81,0,"Russland",1,1,0.551
1,1,21,2,5,82,2,"Dremutak",2,1,0.791
1,1,21,2,5,83,2,"Konnun",2,1,0.846
1,1,21,2,5,84,0,"Urteil",1,1,0.551
1,1,21,2,5,85,0,"begrüßen",1,1,0.551
1,1,21,2,5,86,2,"Handbich",2,1,0.895
1,1,21,2,5,87,3,"röknaorn",2,1,0.846
1,1,21,2,5,88,2,"Rummal",2,1,0.791
1,1,21,2,5,89,1,"Dünger",1,1,0.527
1,1,21,2,5,90,2,"Hackiy",2,1,0.527
1,1,21,2,5,91,0,"Fraktion",1,1,0.637
1,1,21,2,5,92,2,"ristag",2,1,0.646
1,1,21,2,5,93,1,"flehen",1,1,0.654
1,1,21,2,5,94,0,"Verlust",1,1,0.668
1,1,21,2,5,95,0,"stören",1,1,0.463
1,1,21,2,5,96,3,"Eobtkk",2,1,0.686
1,1,21,2,5,97,2,"ibhangan",2,1,0.599
1,1,21,2,5,98,0,"Tabelle",1,1,0.495
1,1,21,2,5,99,2,"Bandu",2,1,0.646
1,1,21,2,5,100,3,"Orflek",2,1,0.639
1,1,21,2,5,101,0,"öffnen",1,1,0.534
1,1,21,2,5,102,0,"Radio",1,1,0.503
1,1,21,2,5,103,1,"Dämmung",1,1,0.487
1,1,21,2,5,104,3,"Köitltl",2,1,0.543
1,1,21,2,6,5,1,"Schmelz",1,1,0.494
1,1,21,2,6,6,2,"Prelleng",2,1,0.719
1,1,21,2,6,7,0,"Chance",1,1,0.495
1,1,21,2,6,8,2,"bedeont",2,1,0.623
1,1,21,2,6,9,3,"Aunksse",2,1,0.566
1,1,21,2,6,10,2,"nirvon",2,1,0.463
1,1,21,2,6,11,3,"Rolaareg",2,1,0.534
1,1,21,2,6,12,0,"Wunder",1,1,0.535
1,1,21,2,6,13,0,"Bewegung",1,1,0.662
1,1,21,2,6,14,0,"Auskunft",1,1,0.567
1,1,21,2,6,15,2,"Pusseun",2,1,0.615
1,1,21,2,6,16,3,"Suhree",2,1,0.518
1,1,21,2,6,17,3,"Foarin",2,1,0.542
1,1,21,2,6,18,0,"gebären",1,1,0.519
1,1,21,2,6,19,1,"schwanen",1,1,0.831
1,1,21,2,6,20,3,"Ruoszsn",2,1,0.638
1,1,21,2,6,21,0,"steigern",1,1,1.031
1,1,21,2,6,22,3,"Leslva",2,1,0.534
1,1,21,2,6,23,2,"varnotzt",2,1,0.543
1,1,21,2,6,24,0,"gesetzt",1,1,0.694
1,1,21,2,6,25,2,"Rungon",2,1,0.686
1,1,21,2,6,26,1,"Seebühne",1,1,0.591
1,1,21,2,6,27,1,"Deckname",1,1,0.671
1,1,21,2,6,28,0,"benutzen",1,1,0.535
1,1,21,2,6,29,2,"Schwin",2,1,0.59
1,1,21,2,6,30,0,"hängen",1,1,0.767
1,1,21,2,6,31,2,"Booort",2,1,0.654
1,1,21,2,6,32,3,"Öömirie",2,1,0.67
1,1,21,2,6,33,1,"Ersuchen",1,1,0.615
1,1,21,2,6,34,0,"Mangel",1,1,0.582
1,1,21,2,6,35,1,"Topform",1,1,0.559
1,1,21,2,6,36,2,"ibwindan",2,1,0.598
1,1,21,2,6,37,2,"hektusch",2,1,0.534
1,1,21,2,6,38,2,"wedurch",2,1,0.95
1,1,21,2,6,39,3,"Wiideod",2,1,0.494
1,1,21,2,6,40,3,"aifirc",2,1,0.487
1,1,21,2,6,41,3,"Taashe",2,1,0.575
1,1,21,2,6,42,0,"blicken",1,1,0.591
1,1,21,2,6,43,0,"zunehmen",1,1,0.558
1,1,21,2,6,44,1,"erwehren",1,1,0.527
1,1,21,2,6,45,2,"Retwoin",2,1,0.614
1,1,21,2,6,46,0,"Nation",1,1,0.687
1,1,21,2,6,47,1,"Geysir",2,0,0.623
1,1,21,2,6,48,1,"putzig",1,1,0.943
1,1,21,2,6,49,1,"konfus",2,0,0.582
1,1,21,2,6,50,1,"Zwinger",1,1,0.814
1,1,21,2,6,51,1,"Blümchen",1,1,0.542
1,1,21,2,6,52,2,"batiabun",2,1,0.638
1,1,21,2,6,53,1,"traben",1,1,0.75
1,1,21,2,6,54,0,"Eintritt",1,1,0.519
1,1,21,2,6,55,2,"Enret",2,1,0.679
1,1,21,2,6,56,2,"Spazeul",2,1,0.726
1,1,21,2,6,57,1,"vertieft",1,1,0.774
1,1,21,2,6,58,0,"Meinung",1,1,0.599
1,1,21,2,6,59,1,"ranken",1,1,1.223
1,1,21,2,6,60,2,"waltlich",2,1,1.143
1,1,21,2,6,61,3,"senban",2,1,0.67
1,1,21,2,6,62,3,"Lafghs",2,1,0.582
1,1,21,2,6,63,2,"Iptumist",2,1,0.55
1,1,21,2,6,64,3,"Uahnnier",2,1,0.559
1,1,21,2,6,65,3,"Bußpten",2,1,0.767
1,1,21,2,6,66,0,"Aufgabe",1,1,0.526
1,1,21,2,6,67,3,"hetder",2,1,0.75
1,1,21,2,6,68,0,"fahren",1,1,0.647
1,1,21,2,6,69,2,"wahmuteg",2,1,0.582
1,1,21,2,6,70,3,"Lnewebr",2,1,0.543
1,1,21,2,6,71,1,"Billard",1,1,0.663
1,1,21,2,6,72,0,"Einheit",1,1,0.759
1,1,21,2,6,73,0,"Vogel",1,1,0.574
1,1,21,2,6,74,3,"Kogse",2,1,0.663
1,1,21,2,6,75,2,"Umperu",2,1,0.487
1,1,21,2,6,76,0,"regieren",1,1,0.551
1,1,21,2,6,77,3,"Pihand",2,1,0.59
1,1,21,2,6,78,3,"Seotmrn",2,1,0.519
1,1,21,2,6,79,0,"Struktur",1,1,0.703
1,1,21,2,6,80,3,"Vonhe",2,1,0.719
1,1,21,2,6,81,1,"mürrisch",1,1,0.59
1,1,21,2,6,82,0,"Besuch",1,1,0.623
1,1,21,2,6,83,0,"spanisch",1,1,0.799
1,1,21,2,6,84,1,"Kajak",1,1,0.935
1,1,21,2,6,85,2,"bawertat",2,1,0.582
1,1,21,2,6,86,1,"raffen",1,1,0.526
1,1,21,2,6,87,2,"Bowirb",2,1,0.639
1,1,21,2,6,88,3,"Goocite",2,1,0.799
1,1,21,2,6,89,3,"Vaseifa",2,1,0.734
1,1,21,2,6,90,3,"kusbpr",2,1,0.567
1,1,21,2,6,91,2,"sobold",2,1,0.805
1,1,21,2,6,92,2,"troemun",2,1,0.527
1,1,21,2,6,93,1,"Plagiat",1,1,0.662
1,1,21,2,6,94,2,"gameen",2,1,0.599
1,1,21,2,6,95,3,"diliaee",2,1,0.67
1,1,21,2,6,96,1,"naschen",1,1,0.519
1,1,21,2,6,97,0,"spüren",1,1,0.47
1,1,21,2,6,98,1,"Sperma",1,1,0.59
1,1,21,2,6,99,2,"ertoulun",2,1,0.495
1,1,21,2,6,100,1,"Orgasmus",1,1,0.535
1,1,21,2,6,101,3,"Iuururen",2,1,0.486
1,1,21,2,6,102,0,"entweder",1,1,0.55
1,1,21,2,6,103,1,"wehtun",1,1,0.694
1,1,21,2,6,104,1,"Funkturm",1,1,0.973
1,1,21,2,7,5,1,"Verlass",1,1,0.534
1,1,21,2,7,6,1,"Neutron",1,1,0.55
1,1,21,2,7,7,1,"Zollhaus",1,1,0.495
1,1,21,2,7,8,1,"Tulpe",1,1,0.527
1,1,21,2,7,9,0,"darum",1,1,0.51
1,1,21,2,7,10,1,"Pulli",1,1,0.686
1,1,21,2,7,11,1,"gewidmet",1,1,0.71
1,1,21,2,7,12,2,"Puzza",1,0,0.431
1,1,21,2,7,13,1,"Rosine",1,1,0.59
1,1,21,2,7,14,3,"Grryt",2,1,0.655
1,1,21,2,7,15,0,"weiblich",1,1,0.598
1,1,21,2,7,16,3,"sevoet",2,1,0.847
1,1,21,2,7,17,1,"Abteil",1,1,0.518
1,1,21,2,7,18,3,"dhcnri",2,1,0.487
1,1,21,2,7,19,2,"Hilfurin",2,1,0.871
1,1,21,2,7,20,2,"Okuliguo",2,1,0.519
1,1,21,2,7,21,0,"Richtung",1,1,0.51
1,1,21,2,7,22,2,"Folkliri",2,1,0.51
1,1,21,2,7,23,0,"Regen",1,1,0.743
1,1,21,2,7,24,3,"Nbhiem",2,1,0.518
1,1,21,2,7,25,2,"Omurot",2,1,0.599
1,1,21,2,7,26,1,"imperial",1,1,1.655
1,1,21,2,7,27,2,"Settel",2,1,1.037
1,1,21,2,7,28,3,"Eelmet",2,1,0.582
1,1,21,2,7,29,1,"pädophil",1,1,0.751
1,1,21,2,7,30,2,"Mibil",2,1,0.614
1,1,21,2,7,31,3,"anfim",2,1,0.687
1,1,21,2,7,32,0,"deshalb",1,1,0.623
1,1,21,2,7,33,3,"Torieg",2,1,0.615
1,1,21,2,7,34,1,"schwül",1,1,1.222
1,1,21,2,7,35,3,"Grpent",2,1,0.503
1,1,21,2,7,36,1,"Grazie",1,1,0.639
1,1,21,2,7,37,0,"jemand",1,1,0.526
1,1,21,2,7,38,3,"Menaje",2,1,1.055
1,1,21,2,7,39,0,"generell",1,1,0.614
1,1,21,2,7,40,0,"weiter",1,1,0.47
1,1,21,2,7,41,2,"Tulkshow",2,1,1.111
1,1,21,2,7,42,3,"Llpagrit",2,1,0.607
1,1,21,2,7,43,3,"aoine",2,1,0.566
1,1,21,2,7,44,0,"intern",1,1,0.743
1,1,21,2,7,45,1,"Falkner",1,1,0.911
1,1,21,2,7,46,2,"Unlouhe",2,1,0.815
1,1,21,2,7,47,1,"kurbeln",1,1,0.838
1,1,21,2,7,48,2,"Tsonemo",2,1,0.501
1,1,21,2,7,49,3,"Fnmfoi",2,1,0.574
1,1,21,2,7,50,2,"Birruora",2,1,0.526
1,1,21,2,7,51,0,"November",1,1,0.589
1,1,21,2,7,52,2,"boigun",2,1,0.543
1,1,21,2,7,53,0,"derzeit",1,1,0.583
1,1,21,2,7,54,3,"tlnrneß",2,1,0.591
1,1,21,2,7,55,3,"fonnrest",2,1,0.655
1,1,21,2,7,56,1,"Streuung",1,1,0.894
1,1,21,2,7,57,0,"Umgang",1,1,0.517
1,1,21,2,7,58,0,"konkret",1,1,0.503
1,1,21,2,7,59,2,"Bistzuut",2,1,0.711
1,1,21,2,7,60,1,"Melker",1,1,0.654
1,1,21,2,7,61,2,"Puckeng",2,1,1.055
1,1,21,2,7,62,3,"Guhelz",2,1,0.854
1,1,21,2,7,63,1,"Junkie",1,1,0.67
1,1,21,2,7,64,0,"Keller",1,1,0.535
1,1,21,2,7,65,1,"gesenkt",1,1,0.558
1,1,21,2,7,66,1,"rasten",1,1,0.55
1,1,21,2,7,67,1,"Kühle",1,1,0.51
1,1,21,2,7,68,3,"anrkhl",2,1,0.519
1,1,21,2,7,69,3,"Srbifg",2,1,0.527
1,1,21,2,7,70,0,"Arbeiter",1,1,0.519
1,1,21,2,7,71,1,"abblasen",1,1,0.847
1,1,21,2,7,72,3,"eäslra",2,1,0.719
1,1,21,2,7,73,3,"Garsra",2,1,0.67
1,1,21,2,7,74,0,"Figur",1,1,0.575
1,1,21,2,7,75,0,"scheinen",1,1,0.966
1,1,21,2,7,76,1,"ansuchen",2,0,2.423
1,1,21,2,7,77,2,"houtnah",2,1,0.695
1,1,21,2,7,78,2,"Oangraff",2,1,0.526
1,1,21,2,7,79,3,"Hedtran",2,1,0.591
1,1,21,2,7,80,2,"Klubhias",2,1,1.071
1,1,21,2,7,81,2,"statig",1,0,1.047
1,1,21,2,7,82,3,"Kelftz",2,1,0.566
1,1,21,2,7,83,0,"Westen",1,1,0.558
1,1,21,2,7,84,0,"zitieren",1,1,0.606
1,1,21,2,7,85,1,"Osmane",1,1,0.823
1,1,21,2,7,86,2,"Jummor",2,1,0.646
1,1,21,2,7,87,0,"Regelung",1,1,0.661
1,1,21,2,7,88,3,"Drofeip",2,1,0.567
1,1,21,2,7,89,1,"sprießen",1,1,0.83
1,1,21,2,7,90,0,"Niveau",1,1,0.639
1,1,21,2,7,91,2,"Ubbruch",2,1,0.973
1,1,21,2,7,92,3,"Ssain",2,1,0.557
1,1,21,2,7,93,2,"befahron",2,1,0.735
1,1,21,2,7,94,2,"Deikun",2,1,0.798
1,1,21,2,7,95,1,"Stallung",1,1,0.823
1,1,21,2,7,96,0,"lieben",1,1,0.607
1,1,21,2,7,97,0,"Ausgabe",1,1,1.358
1,1,21,2,7,98,2,"sante",2,1,0.87
1,1,21,2,7,99,2,"Ruttor",2,1,0.935
1,1,21,2,7,100,2,"Umpuru",2,1,0.511
1,1,21,2,7,101,0,"tauchen",1,1,0.575
1,1,21,2,7,102,3,"Clcwja",2,1,0.574
1,1,21,2,7,103,0,"wertvoll",1,1,0.655
1,1,21,2,7,104,3,"Mrbuelll",2,1,0.582
1,1,21,2,8,5,2,"wurum",2,1,0.59
1,1,21,2,8,6,3,"Nihgh",2,1,0.486
1,1,21,2,8,7,0,"somit",1,1,0.551
1,1,21,2,8,8,2,"Deesal",2,1,0.551
1,1,21,2,8,9,3,"Bintre",2,1,0.486
1,1,21,2,8,10,0,"Sänger",1,1,0.535
1,1,21,2,8,11,1,"Allgäuer",1,1,0.574
1,1,21,2,8,12,3,"flpts",2,1,0.495
1,1,21,2,8,13,0,"locken",1,1,0.551
1,1,21,2,8,14,2,"allustar",2,1,0.751
1,1,21,2,8,15,2,"Donst",2,1,0.751
1,1,21,2,8,16,1,"karren",1,1,2.03
1,1,21,2,8,17,0,"Schloss",1,1,0.582
1,1,21,2,8,18,2,"Simme",2,1,1.007
1,1,21,2,8,19,1,"düsen",1,1,0.79
1,1,21,2,8,20,2,"hemugen",2,1,0.751
1,1,21,2,8,21,2,"prochteg",2,1,0.695
1,1,21,2,8,22,1,"Friese",1,1,0.638
1,1,21,2,8,23,1,"Präambel",1,1,0.757
1,1,21,2,8,24,3,"hodrln",2,1,0.51
1,1,21,2,8,25,1,"Qualm",1,1,0.567
1,1,21,2,8,26,2,"Stedoa",2,1,0.639
1,1,21,2,8,27,2,"Axpurt",2,1,0.519
1,1,21,2,8,28,1,"Mähne",1,1,0.551
1,1,21,2,8,29,0,"Benutzer",1,1,0.583
1,1,21,2,8,30,0,"Beweis",1,1,0.487
1,1,21,2,8,31,3,"Gatdiee",2,1,0.687
1,1,21,2,8,32,2,"anrackun",2,1,0.647
1,1,21,2,8,33,3,"kahot",2,1,0.519
1,1,21,2,8,34,1,"fruchten",1,1,1.295
1,1,21,2,8,35,1,"Plasma",1,1,0.615
1,1,21,2,8,36,0,"indes",1,1,0.647
1,1,21,2,8,37,0,"trotzdem",1,1,0.567
1,1,21,2,8,38,1,"Vehemenz",1,1,0.814
1,1,21,2,8,39,2,"lablas",2,1,0.783
1,1,21,2,8,40,3,"abubal",2,1,0.631
1,1,21,2,8,41,0,"Moment",1,1,0.51
1,1,21,2,8,42,3,"Dnitzef",2,1,0.518
1,1,21,2,8,43,2,"Lutes",2,1,0.686
1,1,21,2,8,44,1,"Spule",1,1,0.598
1,1,21,2,8,45,1,"sandig",1,1,0.767
1,1,21,2,8,46,2,"noadlech",2,1,0.543
1,1,21,2,8,47,0,"Menge",1,1,0.679
1,1,21,2,8,48,1,"rußen",1,1,1.71
1,1,21,2,8,49,1,"Modem",2,0,0.887
1,1,21,2,8,50,3,"Pefuf",2,1,0.55
1,1,21,2,8,51,3,"Eotre",2,1,0.567
1,1,21,2,8,52,2,"Bardauex",2,1,0.75
1,1,21,2,8,53,1,"Untat",1,1,0.727
1,1,21,2,8,54,0,"heuer",2,0,1.183
1,1,21,2,8,55,2,"huton",2,1,0.751
1,1,21,2,8,56,2,"sonneg",2,1,0.799
1,1,21,2,8,57,3,"flueeo",2,1,0.639
1,1,21,2,8,58,2,"Quirtil",2,1,0.879
1,1,21,2,8,59,1,"ruppig",1,1,0.59
1,1,21,2,8,60,3,"bttfraie",2,1,0.6
1,1,21,2,8,61,0,"Unfall",1,1,0.511
1,1,21,2,8,62,3,"hosane",2,1,1.047
1,1,21,2,8,63,0,"weltweit",1,1,0.534
1,1,21,2,8,64,3,"Hulonu",2,1,0.598
1,1,21,2,8,65,2,"Funal",2,1,1.303
1,1,21,2,8,66,0,"erfahren",1,1,0.663
1,1,21,2,8,67,1,"klirrend",1,1,0.655
1,1,21,2,8,68,3,"Kxgre",2,1,0.487
1,1,21,2,8,69,2,"rintubel",2,1,0.807
1,1,21,2,8,70,3,"Dekfn",2,1,0.51
1,1,21,2,8,71,3,"Rekkwtlr",2,1,0.623
1,1,21,2,8,72,1,"Raserei",1,1,0.613
1,1,21,2,8,73,2,"blahin",2,1,0.647
1,1,21,2,8,74,3,"Houehan",2,1,0.535
1,1,21,2,8,75,0,"später",1,1,0.614
1,1,21,2,8,76,1,"Chaussee",2,0,0.519
1,1,21,2,8,77,1,"Genus",2,0,1.047
1,1,21,2,8,78,0,"Kreuz",1,1,0.751
1,1,21,2,8,79,0,"System",1,1,1.382
1,1,21,2,8,80,3,"Tldknoe",2,1,0.551
1,1,21,2,8,81,1,"Koppel",1,1,0.623
1,1,21,2,8,82,3,"snfiz",2,1,0.479
1,1,21,2,8,83,0,"Material",1,1,0.501
1,1,21,2,8,84,0,"Sicht",1,1,0.526
1,1,21,2,8,85,1,"Kompost",1,1,0.679
1,1,21,2,8,86,2,"Garengol",2,1,0.926
1,1,21,2,8,87,0,"Frieden",1,1,0.526
1,1,21,2,8,88,3,"Rtaznsa",2,1,0.535
1,1,21,2,8,89,2,"klibon",2,1,0.743
1,1,21,2,8,90,2,"Rempi",2,1,0.702
1,1,21,2,8,91,0,"Deutsche",1,1,0.517
1,1,21,2,8,92,2,"Splut",2,1,0.511
1,1,21,2,8,93,1,"jazzig",2,0,0.838
1,1,21,2,8,94,3,"Dhomu",2,1,0.975
1,1,21,2,8,95,0,"heben",1,1,0.647
1,1,21,2,8,96,1,"Geigerin",1,1,0.551
1,1,21,2,8,97,1,"heiligen",1,1,0.534
1,1,21,2,8,98,3,"klzrti",2,1,0.51
1,1,21,2,8,99,2,"Schonkin",2,1,0.758
1,1,21,2,8,100,0,"schießen",1,1,0.574
1,1,21,2,8,101,0,"Künstler",1,1,0.566
1,1,21,2,8,102,3,"rolltu",2,1,0.487
1,1,21,2,8,103,3,"Barkrh",2,1,0.534
1,1,21,2,8,104,0,"Folge",1,1,0.582
1,1,21,3,1,5,2,"Bilobong",2,1,0.487
1,1,21,3,1,6,3,"Naaiwgi",2,1,0.518
1,1,21,3,1,7,1,"sortiert",1,1,0.502
1,1,21,3,1,8,0,"Wille",1,1,0.469
1,1,21,3,1,9,2,"gewennin",2,1,0.51
1,1,21,3,1,10,3,"beodil",2,1,0.445
1,1,21,3,1,11,2,"Pradukut",2,1,0.605
1,1,21,3,1,12,1,"Ökostrom",1,1,0.552
1,1,21,3,1,13,0,"Weise",1,1,0.493
1,1,21,3,1,14,2,"mahuvall",2,1,0.478
1,1,21,3,1,15,3,"Urlokh",2,1,0.47
1,1,21,3,1,16,3,"hicpd",2,1,0.423
1,1,21,3,1,17,2,"Wohrung",2,1,0.686
1,1,21,3,1,18,2,"Luoru",2,1,0.454
1,1,21,3,1,19,1,"Schwedin",1,1,0.502
1,1,21,3,1,20,3,"penslr",2,1,0.463
1,1,21,3,1,21,3,"acaer",2,1,0.438
1,1,21,3,1,22,3,"Kapdonir",2,1,0.535
1,1,21,3,1,23,3,"Bhhnnu",2,1,0.43
1,1,21,3,1,24,0,"Verlag",1,1,0.495
1,1,21,3,1,25,1,"Idyll",2,0,0.407
1,1,21,3,1,26,0,"außen",1,1,0.503
1,1,21,3,1,27,3,"Fiimi",2,1,0.479
1,1,21,3,1,28,0,"Drittel",1,1,0.478
1,1,21,3,1,29,0,"vermuten",1,1,0.639
1,1,21,3,1,30,0,"Nachbar",1,1,0.447
1,1,21,3,1,31,3,"Igrhnl",2,1,0.479
1,1,21,3,1,32,0,"Coach",1,1,0.55
1,1,21,3,1,33,2,"Kotte",2,1,0.91
1,1,21,3,1,34,3,"Brser",2,1,0.479
1,1,21,3,1,35,0,"rasch",1,1,0.549
1,1,21,3,1,36,3,"ueehrb",2,1,0.467
1,1,21,3,1,37,2,"Zehlar",2,1,0.863
1,1,21,3,1,38,1,"loten",1,1,0.869
1,1,21,3,1,39,3,"Kakba",2,1,0.774
1,1,21,3,1,40,2,"virhobon",2,1,0.533
1,1,21,3,1,41,1,"höhnen",1,1,0.581
1,1,21,3,1,42,0,"schenken",1,1,0.469
1,1,21,3,1,43,3,"Miswlu",2,1,0.609
1,1,21,3,1,44,1,"knurren",1,1,0.561
1,1,21,3,1,45,1,"garen",1,1,0.454
1,1,21,3,1,46,1,"ächzen",1,1,0.582
1,1,21,3,1,47,2,"Dring",1,0,0.405
1,1,21,3,1,48,3,"Eoulwn",2,1,0.566
1,1,21,3,1,49,0,"Konflikt",1,1,0.494
1,1,21,3,1,50,0,"erteilen",1,1,0.678
1,1,21,3,1,51,2,"lohmen",2,1,0.948
1,1,21,3,1,52,3,"Lahdde",2,1,0.486
1,1,21,3,1,53,2,"uthesch",2,1,0.47
1,1,21,3,1,54,0,"teilen",1,1,0.47
1,1,21,3,1,55,1,"abwerben",1,1,0.919
1,1,21,3,1,56,3,"leaap",2,1,0.486
1,1,21,3,1,57,0,"kritisch",1,1,0.535
1,1,21,3,1,58,0,"Gründung",1,1,0.509
1,1,21,3,1,59,1,"kramen",1,1,0.686
1,1,21,3,1,60,1,"Weindorf",1,1,0.486
1,1,21,3,1,61,2,"Bukunnte",2,1,0.574
1,1,21,3,1,62,3,"pnigkne",2,1,0.543
1,1,21,3,1,63,2,"sunnun",2,1,0.598
1,1,21,3,1,64,1,"Zyklon",1,1,0.654
1,1,21,3,1,65,0,"Saison",1,1,0.462
1,1,21,3,1,66,3,"Aamhkcue",2,1,0.51
1,1,21,3,1,67,1,"geduldet",1,1,0.501
1,1,21,3,1,68,0,"Medium",1,1,0.486
1,1,21,3,1,69,2,"Funku",2,1,0.511
1,1,21,3,1,70,1,"Kelch",1,1,0.583
1,1,21,3,1,71,0,"Montag",1,1,0.447
1,1,21,3,1,72,3,"Orbmgdrn",2,1,0.475
1,1,21,3,1,73,3,"Fnnlsce",2,1,0.478
1,1,21,3,1,74,2,"Zugibu",2,1,0.542
1,1,21,3,1,75,1,"Archivar",1,1,1.318
1,1,21,3,1,76,2,"Starz",2,1,1.07
1,1,21,3,1,77,0,"bedeuten",1,1,0.423
1,1,21,3,1,78,2,"bunutzin",2,1,0.486
1,1,21,3,1,79,0,"golden",1,1,0.494
1,1,21,3,1,80,3,"frcars",2,1,0.47
1,1,21,3,1,81,1,"perlen",1,1,0.534
1,1,21,3,1,82,2,"Scholtir",2,1,0.574
1,1,21,3,1,83,0,"Sender",1,1,0.438
1,1,21,3,1,84,0,"sechs",1,1,0.518
1,1,21,3,1,85,1,"Erzfeind",1,1,0.487
1,1,21,3,1,86,2,"Trebul",2,1,0.734
1,1,21,3,1,87,0,"belasten",1,1,0.518
1,1,21,3,1,88,0,"erwarten",1,1,0.462
1,1,21,3,1,89,2,"Blaßo",2,1,0.55
1,1,21,3,1,90,2,"Tearperk",2,1,0.79
1,1,21,3,1,91,0,"umfassen",1,1,0.669
1,1,21,3,1,92,3,"Asluy",2,1,0.727
1,1,21,3,1,93,1,"Ballsaal",1,1,0.638
1,1,21,3,1,94,1,"Adlige",1,1,0.511
1,1,21,3,1,95,2,"saosun",2,1,0.623
1,1,21,3,1,96,2,"Ludong",2,1,0.599
1,1,21,3,1,97,1,"feien",2,0,0.822
1,1,21,3,1,98,1,"Analysis",1,1,0.559
1,1,21,3,1,99,3,"sillutp",2,1,0.47
1,1,21,3,1,100,1,"ziellos",1,1,0.543
1,1,21,3,1,101,1,"weiden",1,1,0.447
1,1,21,3,1,102,3,"gtrofl",2,1,0.526
1,1,21,3,1,103,2,"Onklegur",2,1,0.591
1,1,21,3,1,104,1,"Mache",1,1,0.678
1,1,21,3,2,5,0,"teuer",1,1,0.462
1,1,21,3,2,6,2,"irnaiurn",2,1,0.471
1,1,21,3,2,7,2,"Sihlo",2,1,0.494
1,1,21,3,2,8,1,"Nomen",1,1,0.67
1,1,21,3,2,9,1,"seicht",1,1,0.783
1,1,21,3,2,10,2,"oanmileg",2,1,0.486
1,1,21,3,2,11,1,"Urknall",1,1,0.606
1,1,21,3,2,12,2,"tuigin",2,1,0.518
1,1,21,3,2,13,2,"adual",2,1,0.822
1,1,21,3,2,14,2,"Shart",2,1,0.694
1,1,21,3,2,15,1,"Laute",1,1,0.814
1,1,21,3,2,16,1,"käuflich",1,1,0.518
1,1,21,3,2,17,0,"vorsehen",1,1,0.678
1,1,21,3,2,18,3,"Reufa",2,1,0.598
1,1,21,3,2,19,1,"Südsee",1,1,0.455
1,1,21,3,2,20,1,"tadeln",1,1,0.518
1,1,21,3,2,21,3,"Tuoöei",2,1,0.462
1,1,21,3,2,22,2,"Friestal",1,0,0.853
1,1,21,3,2,23,0,"dunkel",1,1,0.445
1,1,21,3,2,24,3,"Hüedl",2,1,0.734
1,1,21,3,2,25,3,"Derxfur",2,1,0.638
1,1,21,3,2,26,3,"Fegui",2,1,0.542
1,1,21,3,2,27,2,"Scola",2,1,0.791
1,1,21,3,2,28,2,"Spreng",1,0,0.502
1,1,21,3,2,29,1,"Violett",1,1,0.509
1,1,21,3,2,30,1,"Frack",1,1,0.59
1,1,21,3,2,31,0,"erheben",1,1,0.518
1,1,21,3,2,32,0,"lehnen",1,1,0.454
1,1,21,3,2,33,0,"indem",1,1,0.438
1,1,21,3,2,34,1,"absacken",1,1,0.542
1,1,21,3,2,35,3,"Fuswgl",2,1,0.549
1,1,21,3,2,36,3,"sruote",2,1,0.559
1,1,21,3,2,37,0,"Essen",1,1,0.43
1,1,21,3,2,38,3,"Hbtipt",2,1,0.47
1,1,21,3,2,39,2,"sipiret",2,1,0.567
1,1,21,3,2,40,3,"Wrnkg",2,1,0.414
1,1,21,3,2,41,1,"feudal",1,1,0.63
1,1,21,3,2,42,1,"Barbier",1,1,0.549
1,1,21,3,2,43,0,"Gerät",1,1,0.463
1,1,21,3,2,44,3,"Ptncely",2,1,0.445
1,1,21,3,2,45,3,"Hoilt",2,1,0.574
1,1,21,3,2,46,2,"Wiggon",2,1,0.478
1,1,21,3,2,47,0,"Macht",1,1,0.462
1,1,21,3,2,48,1,"zahnlos",1,1,0.59
1,1,21,3,2,49,3,"Zeelkgr",2,1,0.438
1,1,21,3,2,50,0,"Anlage",1,1,0.446
1,1,21,3,2,51,0,"schicken",1,1,0.494
1,1,21,3,2,52,2,"drinnon",2,1,0.638
1,1,21,3,2,53,1,"Baske",1,1,1.238
1,1,21,3,2,54,0,"besetzen",1,1,0.438
1,1,21,3,2,55,1,"verarmen",1,1,0.43
1,1,21,3,2,56,2,"irbettun",2,1,0.47
1,1,21,3,2,57,0,"stoßen",1,1,0.478
1,1,21,3,2,58,0,"Bezug",1,1,0.55
1,1,21,3,2,59,3,"flthcnn",2,1,0.454
1,1,21,3,2,60,1,"angesagt",1,1,0.43
1,1,21,3,2,61,2,"Puonu",2,1,0.582
1,1,21,3,2,62,3,"Baeoronl",2,1,0.495
1,1,21,3,2,63,2,"baluufen",2,1,0.549
1,1,21,3,2,64,3,"Bunrrak",2,1,0.518
1,1,21,3,2,65,3,"Fdlee",2,1,0.439
1,1,21,3,2,66,2,"Kesse",1,0,0.454
1,1,21,3,2,67,2,"Waspe",2,1,1.133
1,1,21,3,2,68,0,"Konzern",1,1,0.63
1,1,21,3,2,69,0,"laufend",1,1,0.542
1,1,21,3,2,70,2,"Fuhrspur",2,1,0.949
1,1,21,3,2,71,0,"Reise",1,1,0.47
1,1,21,3,2,72,1,"Bingo",1,1,0.606
1,1,21,3,2,73,0,"Stadtrat",1,1,0.478
1,1,21,3,2,74,1,"Hausbau",1,1,0.462
1,1,21,3,2,75,0,"ohnehin",1,1,0.495
1,1,21,3,2,76,1,"Einkunft",1,1,0.43
1,1,21,3,2,77,0,"bemühen",1,1,0.414
1,1,21,3,2,78,3,"Bmaaii",2,1,0.462
1,1,21,3,2,79,1,"Rundweg",1,1,0.471
1,1,21,3,2,80,3,"Gemtt",2,1,0.461
1,1,21,3,2,81,2,"engahon",2,1,0.615
1,1,21,3,2,82,3,"Liliwne",2,1,0.398
1,1,21,3,2,83,1,"gellen",1,1,0.47
1,1,21,3,2,84,2,"Bafignas",2,1,1.27
1,1,21,3,2,85,2,"Terpida",2,1,0.566
1,1,21,3,2,86,0,"aufbauen",1,1,0.43
1,1,21,3,2,87,2,"aenhar",2,1,0.574
1,1,21,3,2,88,2,"Schmotz",2,1,0.878
1,1,21,3,2,89,1,"abfällig",1,1,0.542
1,1,21,3,2,90,3,"Prnme",2,1,0.446
1,1,21,3,2,91,2,"Oonkaaf",2,1,0.445
1,1,21,3,2,92,0,"gelangen",1,1,0.494
1,1,21,3,2,93,3,"Erhiregn",2,1,0.502
1,1,21,3,2,94,3,"Keüch",2,1,0.494
1,1,21,3,2,95,2,"Kinzel",2,1,0.614
1,1,21,3,2,96,0,"Sängerin",1,1,0.543
1,1,21,3,2,97,0,"Wasser",1,1,0.502
1,1,21,3,2,98,1,"Blutspur",1,1,0.646
1,1,21,3,2,99,3,"Fnbirre",2,1,0.471
1,1,21,3,2,100,1,"Zebra",1,1,0.447
1,1,21,3,2,101,0,"Hinweis",1,1,0.509
1,1,21,3,2,102,1,"timen",2,0,0.583
1,1,21,3,2,103,3,"Fasstn",2,1,0.622
1,1,21,3,2,104,3,"eoumurn",2,1,0.453
1,1,21,3,3,5,0,"sowohl",1,1,0.534
1,1,21,3,3,6,0,"doppelt",1,1,0.471
1,1,21,3,3,7,1,"Bowling",1,1,0.55
1,1,21,3,3,8,3,"eöigg",2,1,0.446
1,1,21,3,3,9,0,"verraten",1,1,0.485
1,1,21,3,3,10,2,"Reckluga",2,1,0.526
1,1,21,3,3,11,1,"drunter",1,1,0.613
1,1,21,3,3,12,3,"huumcu",2,1,0.91
1,1,21,3,3,13,3,"aogthr",2,1,0.574
1,1,21,3,3,14,2,"Hirsoel",2,1,0.686
1,1,21,3,3,15,2,"Fildwig",2,1,0.566
1,1,21,3,3,16,3,"uüitatg",2,1,0.406
1,1,21,3,3,17,1,"Vollmond",1,1,0.462
1,1,21,3,3,18,0,"heftig",1,1,0.534
1,1,21,3,3,19,2,"Spuilirt",2,1,0.526
1,1,21,3,3,20,1,"Affekt",1,1,0.51
1,1,21,3,3,21,1,"erdulden",1,1,0.55
1,1,21,3,3,22,0,"tanzen",1,1,0.414
1,1,21,3,3,23,2,"Rackging",2,1,0.678
1,1,21,3,3,24,3,"Begteen",2,1,0.63
1,1,21,3,3,25,3,"Brlgpee",2,1,0.446
1,1,21,3,3,26,0,"zugleich",1,1,0.711
1,1,21,3,3,27,1,"Stadel",1,1,0.798
1,1,21,3,3,28,1,"Gauner",1,1,0.854
1,1,21,3,3,29,3,"Heifza",2,1,0.51
1,1,21,3,3,30,2,"Bombor",2,1,0.742
1,1,21,3,3,31,1,"Adelige",1,1,0.59
1,1,21,3,3,32,2,"dostar",2,1,0.599
1,1,21,3,3,33,2,"Juponer",2,1,0.702
1,1,21,3,3,34,1,"Erbse",1,1,0.502
1,1,21,3,3,35,1,"leidlich",1,1,0.502
1,1,21,3,3,36,0,"benennen",1,1,0.414
1,1,21,3,3,37,1,"Kopplung",1,1,0.486
1,1,21,3,3,38,2,"wahrheft",1,0,1.502
1,1,21,3,3,39,1,"Bürste",1,1,0.526
1,1,21,3,3,40,0,"durchaus",1,1,0.438
1,1,21,3,3,41,2,"Uranur",2,1,0.838
1,1,21,3,3,42,0,"außerdem",1,1,0.487
1,1,21,3,3,43,3,"Peras",2,1,0.549
1,1,21,3,3,44,0,"Theater",1,1,0.477
1,1,21,3,3,45,0,"Partie",1,1,0.637
1,1,21,3,3,46,0,"Kollege",1,1,1.166
1,1,21,3,3,47,0,"Insel",1,1,0.462
1,1,21,3,3,48,2,"Veseta",2,1,0.791
1,1,21,3,3,49,1,"Parabel",1,1,0.71
1,1,21,3,3,50,1,"Borke",2,0,1.679
1,1,21,3,3,51,0,"vergeben",1,1,0.454
1,1,21,3,3,52,3,"Zaazai",2,1,0.534
1,1,21,3,3,53,3,"hongfh",2,1,0.661
1,1,21,3,3,54,3,"Brteea",2,1,0.51
1,1,21,3,3,55,1,"Starre",1,1,0.678
1,1,21,3,3,56,0,"Bündnis",1,1,0.63
1,1,21,3,3,57,2,"Pempe",2,1,0.695
1,1,21,3,3,58,1,"duschen",1,1,0.462
1,1,21,3,3,59,2,"irsparon",2,1,0.718
1,1,21,3,3,60,1,"umjubeln",1,1,0.686
1,1,21,3,3,61,2,"Grußos",2,1,0.581
1,1,21,3,3,62,3,"Hhlrctth",2,1,0.471
1,1,21,3,3,63,0,"Entwurf",1,1,0.686
1,1,21,3,3,64,3,"giiibs",2,1,0.543
1,1,21,3,3,65,0,"Karriere",1,1,0.558
1,1,21,3,3,66,2,"Thrullur",2,1,0.51
1,1,21,3,3,67,1,"abholzen",1,1,0.534
1,1,21,3,3,68,0,"Liter",1,1,0.471
1,1,21,3,3,69,3,"ahltrmnh",2,1,0.47
1,1,21,3,3,70,0,"gefallen",1,1,0.43
1,1,21,3,3,71,1,"behaftet",1,1,0.589
1,1,21,3,3,72,3,"Rrahtan",2,1,0.606
1,1,21,3,3,73,0,"genügen",1,1,0.485
1,1,21,3,3,74,1,"Befall",1,1,0.598
1,1,21,3,3,75,1,"checken",1,1,0.558
1,1,21,3,3,76,3,"Oeeiieo",2,1,0.502
1,1,21,3,3,77,1,"Lernende",1,1,0.99
1,1,21,3,3,78,2,"Hufon",2,1,0.487
1,1,21,3,3,79,2,"Seudlir",2,1,0.534
1,1,21,3,3,80,2,"Gubruuch",2,1,0.51
1,1,21,3,3,81,3,"Girnä",2,1,0.463
1,1,21,3,3,82,0,"stecken",1,1,0.502
1,1,21,3,3,83,1,"Gilde",2,0,0.774
1,1,21,3,3,84,0,"Praxis",1,1,0.51
1,1,21,3,3,85,3,"fepinl",2,1,0.454
1,1,21,3,3,86,3,"Lemsbaem",2,1,0.582
1,1,21,3,3,87,2,"tagulang",2,1,0.895
1,1,21,3,3,88,2,"Prifil",2,1,0.485
1,1,21,3,3,89,2,"mahan",2,1,0.494
1,1,21,3,3,90,3,"Mehnbu",2,1,0.47
1,1,21,3,3,91,3,"Blesaclt",2,1,0.437
1,1,21,3,3,92,2,"Fatniss",2,1,0.567
1,1,21,3,3,93,0,"Rahmen",1,1,0.566
1,1,21,3,3,94,1,"pokern",1,1,0.846
1,1,21,3,3,95,1,"Erosion",1,1,0.686
1,1,21,3,3,96,2,"Kellups",2,1,0.613
1,1,21,3,3,97,3,"tipsish",2,1,0.758
1,1,21,3,3,98,2,"Emnubos",2,1,0.503
1,1,21,3,3,99,0,"sorgen",1,1,0.518
1,1,21,3,3,100,2,"Sulbst",2,1,0.567
1,1,21,3,3,101,3,"bfpds",2,1,0.486
1,1,21,3,3,102,3,"Gytaao",2,1,0.526
1,1,21,3,3,103,3,"aeuieie",2,1,0.478
1,1,21,3,3,104,0,"Farbe",1,1,0.462
1,1,21,3,4,5,2,"Abgabo",2,1,0.542
1,1,21,3,4,6,3,"eanhtri",2,1,0.422
1,1,21,3,4,7,3,"uagpea",2,1,0.439
1,1,21,3,4,8,3,"Aäetple",2,1,0.494
1,1,21,3,4,9,3,"Ergxrd",2,1,0.462
1,1,21,3,4,10,1,"famos",2,0,0.781
1,1,21,3,4,11,0,"leiden",1,1,0.815
1,1,21,3,4,12,2,"eblesin",2,1,0.51
1,1,21,3,4,13,0,"Anfang",1,1,0.494
1,1,21,3,4,14,1,"vergnügt",1,1,0.51
1,1,21,3,4,15,2,"Kolkol",2,1,0.622
1,1,21,3,4,16,3,"goalzenl",2,1,0.486
1,1,21,3,4,17,1,"Resort",1,1,0.591
1,1,21,3,4,18,2,"trutzan",2,1,0.575
1,1,21,3,4,19,0,"mitten",1,1,0.623
1,1,21,3,4,20,3,"Enimszi",2,1,0.575
1,1,21,3,4,21,0,"regional",1,1,0.607
1,1,21,3,4,22,2,"zoigun",2,1,0.494
1,1,21,3,4,23,0,"Kritik",1,1,0.59
1,1,21,3,4,24,0,"fallen",1,1,0.599
1,1,21,3,4,25,0,"Anwalt",1,1,0.486
1,1,21,3,4,26,3,"Stlgem",2,1,0.599
1,1,21,3,4,27,1,"Ausruf",1,1,0.487
1,1,21,3,4,28,0,"Umgebung",1,1,0.782
1,1,21,3,4,29,0,"heimisch",1,1,0.462
1,1,21,3,4,30,2,"mohen",2,1,0.791
1,1,21,3,4,31,3,"Aopsr",2,1,0.518
1,1,21,3,4,32,3,"Mlztol",2,1,0.462
1,1,21,3,4,33,3,"Susue",2,1,0.55
1,1,21,3,4,34,3,"fänkfn",2,1,0.613
1,1,21,3,4,35,1,"Götze",1,1,0.511
1,1,21,3,4,36,0,"Landtag",1,1,0.637
1,1,21,3,4,37,1,"Penis",1,1,0.549
1,1,21,3,4,38,2,"Hille",1,0,0.471
1,1,21,3,4,39,1,"Fachjury",1,1,0.878
1,1,21,3,4,40,0,"demnach",1,1,0.686
1,1,21,3,4,41,0,"Gefühl",1,1,0.502
1,1,21,3,4,42,3,"Serapuel",2,1,0.758
1,1,21,3,4,43,3,"paeen",2,1,0.694
1,1,21,3,4,44,3,"Nrite",2,1,0.663
1,1,21,3,4,45,3,"Hemtee",2,1,0.622
1,1,21,3,4,46,0,"Profi",1,1,0.767
1,1,21,3,4,47,1,"Orakel",1,1,0.654
1,1,21,3,4,48,0,"Erfolg",1,1,0.446
1,1,21,3,4,49,0,"Seele",1,1,0.447
1,1,21,3,4,50,0,"Lehre",1,1,0.414
1,1,21,3,4,51,2,"Boddhe",2,1,0.582
1,1,21,3,4,52,2,"Lunkarin",2,1,1.03
1,1,21,3,4,53,2,"Iasibing",2,1,0.502
1,1,21,3,4,54,2,"birgab",2,1,0.502
1,1,21,3,4,55,1,"Häufung",1,1,0.767
1,1,21,3,4,56,1,"Krypta",2,0,0.438
1,1,21,3,4,57,2,"Grefuk",2,1,0.55
1,1,21,3,4,58,3,"Kwueie",2,1,0.438
1,1,21,3,4,59,0,"Spende",1,1,0.519
1,1,21,3,4,60,2,"Schaltar",2,1,0.927
1,1,21,3,4,61,2,"Gifehrtu",2,1,0.518
1,1,21,3,4,62,3,"gmpwch",2,1,0.431
1,1,21,3,4,63,2,"Seturo",2,1,0.671
1,1,21,3,4,64,3,"Sruideir",2,1,0.478
1,1,21,3,4,65,1,"lustlos",1,1,0.655
1,1,21,3,4,66,3,"Vureo",2,1,0.518
1,1,21,3,4,67,0,"Programm",1,1,0.574
1,1,21,3,4,68,0,"manchmal",1,1,0.511
1,1,21,3,4,69,1,"Oberarm",1,1,0.629
1,1,21,3,4,70,3,"Ttlece",2,1,0.526
1,1,21,3,4,71,0,"Konzert",1,1,0.527
1,1,21,3,4,72,2,"Steur",2,1,0.575
1,1,21,3,4,73,0,"Sprung",1,1,0.526
1,1,21,3,4,74,1,"Hänger",1,1,0.51
1,1,21,3,4,75,3,"Jawloa",2,1,0.718
1,1,21,3,4,76,1,"Exkurs",1,1,0.742
1,1,21,3,4,77,3,"Hezbggd",2,1,0.614
1,1,21,3,4,78,1,"Brache",1,1,1.63
1,1,21,3,4,79,3,"uliabae",2,1,0.43
1,1,21,3,4,80,1,"Wohngeld",1,1,0.495
1,1,21,3,4,81,2,"Sichs",2,1,0.558
1,1,21,3,4,82,0,"Serie",1,1,0.479
1,1,21,3,4,83,1,"Debütant",1,1,1.007
1,1,21,3,4,84,2,"bolistat",2,1,0.83
1,1,21,3,4,85,0,"liberal",1,1,0.557
1,1,21,3,4,86,1,"umkippen",1,1,0.566
1,1,21,3,4,87,2,"beninnt",2,1,1.047
1,1,21,3,4,88,2,"Anraiz",2,1,0.71
1,1,21,3,4,89,2,"umpusent",2,1,0.846
1,1,21,3,4,90,3,"Brnkba",2,1,0.471
1,1,21,3,4,91,1,"Fünfer",1,1,0.557
1,1,21,3,4,92,1,"Groll",1,1,0.686
1,1,21,3,4,93,2,"Iriunt",2,1,0.718
1,1,21,3,4,94,2,"hoftin",2,1,0.903
1,1,21,3,4,95,2,"Binzun",2,1,0.75
1,1,21,3,4,96,1,"Eiland",2,0,0.631
1,1,21,3,4,97,1,"Batzen",1,1,1.198
1,1,21,3,4,98,0,"Bürger",1,1,0.614
1,1,21,3,4,99,0,"Freiheit",1,1,0.839
1,1,21,3,4,100,2,"Collaga",2,1,0.838
1,1,21,3,4,101,1,"Samurai",1,1,0.734
1,1,21,3,4,102,1,"Asbest",1,1,0.67
1,1,21,3,4,103,1,"Augenmaß",1,1,0.549
1,1,21,3,4,104,3,"Aepseeg",2,1,0.567
1,1,21,3,5,5,2,"Virzog",2,1,0.535
1,1,21,3,5,6,0,"leider",1,1,0.503
1,1,21,3,5,7,3,"Rnmpry",2,1,0.646
1,1,21,3,5,8,0,"erfüllen",1,1,0.559
1,1,21,3,5,9,2,"Jikur",2,1,0.461
1,1,21,3,5,10,2,"defokt",2,1,0.671
1,1,21,3,5,11,0,"helfen",1,1,0.551
1,1,21,3,5,12,1,"knistern",1,1,0.599
1,1,21,3,5,13,2,"Levil",2,1,1.262
1,1,21,3,5,14,3,"maakoe",2,1,0.486
1,1,21,3,5,15,0,"religiös",1,1,0.55
1,1,21,3,5,16,3,"Meages",2,1,0.503
1,1,21,3,5,17,0,"schwach",1,1,0.51
1,1,21,3,5,18,3,"Ueugeoe",2,1,0.511
1,1,21,3,5,19,3,"Srpuf",2,1,0.463
1,1,21,3,5,20,1,"Heber",1,1,0.679
1,1,21,3,5,21,0,"nutzen",1,1,0.511
1,1,21,3,5,22,0,"dagegen",1,1,0.47
1,1,21,3,5,23,3,"Bbldc",2,1,0.502
1,1,21,3,5,24,3,"Grlhchn",2,1,0.438
1,1,21,3,5,25,0,"Hilfe",1,1,0.486
1,1,21,3,5,26,2,"trourug",2,1,0.479
1,1,21,3,5,27,0,"Vorstand",1,1,0.639
1,1,21,3,5,28,1,"wogegen",1,1,0.759
1,1,21,3,5,29,3,"damti",2,1,0.599
1,1,21,3,5,30,1,"Vikar",2,0,0.726
1,1,21,3,5,31,3,"Öatfol",2,1,0.542
1,1,21,3,5,32,2,"Kodor",2,1,0.759
1,1,21,3,5,33,2,"Mutza",2,1,0.533
1,1,21,3,5,34,1,"Arsen",1,1,0.679
1,1,21,3,5,35,1,"Spalier",1,1,1.116
1,1,21,3,5,36,1,"Anrecht",1,1,0.494
1,1,21,3,5,37,0,"damit",1,1,0.486
1,1,21,3,5,38,1,"Kuppe",1,1,0.414
1,1,21,3,5,39,3,"unocoho",2,1,0.519
1,1,21,3,5,40,1,"Liebste",1,1,0.462
1,1,21,3,5,41,2,"Uxtrim",2,1,0.59
1,1,21,3,5,42,2,"Varwohl",2,1,0.598
1,1,21,3,5,43,2,"umleitun",2,1,0.894
1,1,21,3,5,44,1,"Kelle",1,1,0.935
1,1,21,3,5,45,0,"fügen",1,1,0.631
1,1,21,3,5,46,3,"Kisdu",2,1,0.606
1,1,21,3,5,47,0,"Haltung",1,1,0.511
1,1,21,3,5,48,1,"Auslauf",1,1,0.549
1,1,21,3,5,49,2,"Tucket",2,1,0.686
1,1,21,3,5,50,3,"ialir",2,1,0.638
1,1,21,3,5,51,2,"Zagreff",2,1,0.605
1,1,21,3,5,52,2,"saitlich",2,1,0.735
1,1,21,3,5,53,2,"prumpt",1,0,0.766
1,1,21,3,5,54,3,"utooe",2,1,0.605
1,1,21,3,5,55,3,"volhst",2,1,0.814
1,1,21,3,5,56,0,"Student",1,1,0.535
1,1,21,3,5,57,3,"Sulfn",2,1,0.638
1,1,21,3,5,58,0,"widmen",1,1,0.59
1,1,21,3,5,59,0,"Religion",1,1,0.543
1,1,21,3,5,60,0,"falls",1,1,0.503
1,1,21,3,5,61,2,"Jurus",2,1,0.79
1,1,21,3,5,62,3,"eehkso",2,1,0.494
1,1,21,3,5,63,0,"Mutter",1,1,0.486
1,1,21,3,5,64,0,"warten",1,1,0.478
1,1,21,3,5,65,3,"Blheeii",2,1,0.686
1,1,21,3,5,66,1,"Klaue",1,1,0.614
1,1,21,3,5,67,0,"Telefon",1,1,0.486
1,1,21,3,5,68,2,"Brollu",2,1,0.567
1,1,21,3,5,69,1,"rostig",1,1,0.727
1,1,21,3,5,70,1,"bärtig",1,1,0.558
1,1,21,3,5,71,2,"goeßin",2,1,0.526
1,1,21,3,5,72,1,"Erlöser",1,1,0.543
1,1,21,3,5,73,1,"Perser",1,1,0.591
1,1,21,3,5,74,3,"rcgae",2,1,0.487
1,1,21,3,5,75,2,"Luchtir",2,1,0.542
1,1,21,3,5,76,1,"ungerade",1,1,0.583
1,1,21,3,5,77,1,"Atrium",1,1,1.007
1,1,21,3,5,78,0,"Maschine",1,1,0.478
1,1,21,3,5,79,1,"Wagnis",1,1,0.71
1,1,21,3,5,80,1,"Pappel",1,1,0.502
1,1,21,3,5,81,3,"Aepoare",2,1,0.647
1,1,21,3,5,82,1,"Ratssaal",1,1,0.575
1,1,21,3,5,83,1,"bügeln",1,1,0.511
1,1,21,3,5,84,0,"Verlauf",1,1,0.551
1,1,21,3,5,85,3,"Ulhhemf",2,1,0.599
1,1,21,3,5,86,0,"Blick",1,1,0.447
1,1,21,3,5,87,3,"gulmkagh",2,1,0.509
1,1,21,3,5,88,2,"Ebnohma",2,1,0.527
1,1,21,3,5,89,2,"zagohun",2,1,0.39
1,1,21,3,5,90,2,"Onwultan",2,1,0.447
1,1,21,3,5,91,0,"Nacht",1,1,0.677
1,1,21,3,5,92,1,"dosieren",1,1,0.55
1,1,21,3,5,93,3,"Fegbilnu",2,1,0.646
1,1,21,3,5,94,0,"Termin",1,1,0.535
1,1,21,3,5,95,2,"Abtoa",2,1,0.654
1,1,21,3,5,96,3,"uolvet",2,1,0.476
1,1,21,3,5,97,2,"Wittlaof",2,1,0.565
1,1,21,3,5,98,1,"errungen",1,1,0.613
1,1,21,3,5,99,0,"loben",1,1,0.478
1,1,21,3,5,100,3,"Werrane",2,1,0.758
1,1,21,3,5,101,3,"Gihln",2,1,0.503
1,1,21,3,5,102,2,"varfalgt",2,1,0.59
1,1,21,3,5,103,2,"Frast",2,1,0.95
1,1,21,3,5,104,1,"Tropf",1,1,0.526
1,1,21,3,6,5,2,"punktu",2,1,0.606
1,1,21,3,6,6,3,"Bepctu",2,1,0.591
1,1,21,3,6,7,0,"Verkauf",1,1,0.597
1,1,21,3,6,8,2,"Rumer",2,1,0.654
1,1,21,3,6,9,3,"Taeokhe",2,1,0.47
1,1,21,3,6,10,0,"Zweck",1,1,0.51
1,1,21,3,6,11,3,"seslnon",2,1,0.47
1,1,21,3,6,12,2,"Sodwast",2,1,0.679
1,1,21,3,6,13,2,"enmatin",2,1,0.631
1,1,21,3,6,14,0,"Gremium",1,1,0.614
1,1,21,3,6,15,3,"Blaixor",2,1,0.575
1,1,21,3,6,16,0,"Autor",1,1,0.519
1,1,21,3,6,17,1,"wählbar",1,1,0.599
1,1,21,3,6,18,0,"ausbauen",1,1,0.606
1,1,21,3,6,19,2,"menumel",2,1,0.502
1,1,21,3,6,20,0,"Prozess",1,1,0.518
1,1,21,3,6,21,3,"Friäteit",2,1,0.487
1,1,21,3,6,22,1,"Nachsatz",1,1,0.67
1,1,21,3,6,23,1,"Platin",1,1,0.622
1,1,21,3,6,24,2,"Orfundir",2,1,0.494
1,1,21,3,6,25,2,"Luhrlung",2,1,0.654
1,1,21,3,6,26,2,"arstehon",2,1,0.542
1,1,21,3,6,27,1,"Reiterin",1,1,0.55
1,1,21,3,6,28,0,"entfernt",1,1,0.622
1,1,21,3,6,29,2,"Russart",2,1,1.038
1,1,21,3,6,30,3,"Iatcet",2,1,0.479
1,1,21,3,6,31,1,"kapern",1,1,0.511
1,1,21,3,6,32,1,"peripher",2,0,0.455
1,1,21,3,6,33,2,"Morkmal",2,1,0.783
1,1,21,3,6,34,3,"Cinxzt",2,1,0.471
1,1,21,3,6,35,0,"Service",1,1,0.783
1,1,21,3,6,36,0,"Finale",1,1,0.495
1,1,21,3,6,37,2,"Krumer",1,0,0.478
1,1,21,3,6,38,2,"Lundlu",2,1,0.55
1,1,21,3,6,39,2,"Tonbund",1,0,0.663
1,1,21,3,6,40,3,"Eüalee",2,1,0.582
1,1,21,3,6,41,1,"Kalzium",1,1,0.582
1,1,21,3,6,42,3,"radat",2,1,0.838
1,1,21,3,6,43,1,"belangen",1,1,0.551
1,1,21,3,6,44,1,"Strunk",1,1,0.735
1,1,21,3,6,45,3,"Kebraec",2,1,0.519
1,1,21,3,6,46,0,"wiederum",1,1,0.838
1,1,21,3,6,47,3,"Taifpü",2,1,0.494
1,1,21,3,6,48,3,"revghern",2,1,0.566
1,1,21,3,6,49,2,"Ritto",2,1,0.726
1,1,21,3,6,50,0,"massiv",1,1,0.726
1,1,21,3,6,51,3,"Apndeed",2,1,0.415
1,1,21,3,6,52,1,"Retro",1,1,0.639
1,1,21,3,6,53,0,"weisen",1,1,0.447
1,1,21,3,6,54,0,"bereiten",1,1,0.463
1,1,21,3,6,55,1,"Einst",1,1,0.662
1,1,21,3,6,56,0,"Landrat",1,1,0.519
1,1,21,3,6,57,0,"wechseln",1,1,0.438
1,1,21,3,6,58,0,"Woche",1,1,0.463
1,1,21,3,6,59,3,"Trlzbl",2,1,0.511
1,1,21,3,6,60,1,"knusprig",1,1,0.494
1,1,21,3,6,61,2,"necht",2,1,1.063
1,1,21,3,6,62,1,"Almosen",1,1,0.638
1,1,21,3,6,63,2,"Bagihrin",2,1,0.655
1,1,21,3,6,64,2,"Kindin",2,1,0.646
1,1,21,3,6,65,2,"hungihin",2,1,0.446
1,1,21,3,6,66,0,"werfen",1,1,0.542
1,1,21,3,6,67,1,"Knüppel",1,1,0.582
1,1,21,3,6,68,3,"Ssgäke",2,1,0.479
1,1,21,3,6,69,1,"Städter",1,1,0.815
1,1,21,3,6,70,0,"dringend",1,1,0.599
1,1,21,3,6,71,0,"Führung",1,1,0.51
1,1,21,3,6,72,3,"Balhf",2,1,0.766
1,1,21,3,6,73,3,"Alfön",2,1,0.559
1,1,21,3,6,74,3,"Worpii",2,1,0.55
1,1,21,3,6,75,3,"Danutt",2,1,0.558
1,1,21,3,6,76,3,"Mipddn",2,1,0.479
1,1,21,3,6,77,1,"Masseur",1,1,1.23
1,1,21,3,6,78,3,"Vrnozpe",2,1,0.47
1,1,21,3,6,79,1,"filtern",1,1,0.534
1,1,21,3,6,80,2,"Tolofux",2,1,0.551
1,1,21,3,6,81,2,"Fraihorr",2,1,0.55
1,1,21,3,6,82,0,"gelungen",1,1,0.542
1,1,21,3,6,83,1,"grenznah",1,1,0.814
1,1,21,3,6,84,0,"Beginn",1,1,0.543
1,1,21,3,6,85,2,"Heosorzt",2,1,0.702
1,1,21,3,6,86,1,"Kampfjet",1,1,0.655
1,1,21,3,6,87,3,"araige",2,1,0.567
1,1,21,3,6,88,2,"Vurfill",1,0,0.462
1,1,21,3,6,89,1,"Bettag",1,1,0.575
1,1,21,3,6,90,0,"Anfrage",1,1,0.479
1,1,21,3,6,91,2,"Vuttar",2,1,0.925
1,1,21,3,6,92,3,"Hleroe",2,1,0.583
1,1,21,3,6,93,1,"Quere",1,1,0.624
1,1,21,3,6,94,1,"Piercing",1,1,0.535
1,1,21,3,6,95,1,"queren",1,1,0.602
1,1,21,3,6,96,2,"Aapharee",2,1,0.687
1,1,21,3,6,97,3,"Guhtlr",2,1,0.542
1,1,21,3,6,98,0,"Stimme",1,1,0.494
1,1,21,3,6,99,0,"sperren",1,1,0.479
1,1,21,3,6,100,2,"hitzeg",2,1,0.95
1,1,21,3,6,101,0,"beweisen",1,1,0.535
1,1,21,3,6,102,1,"Grotte",1,1,0.502
1,1,21,3,6,103,1,"Übermaß",1,1,0.487
1,1,21,3,6,104,3,"Muoste",2,1,0.591
1,1,21,3,7,5,3,"Kevnei",2,1,0.486
1,1,21,3,7,6,2,"Enstund",1,0,0.67
1,1,21,3,7,7,2,"Kallor",2,1,1.463
1,1,21,3,7,8,0,"Beruf",1,1,0.599
1,1,21,3,7,9,2,"Iratak",2,1,0.751
1,1,21,3,7,10,2,"Clawn",2,1,0.679
1,1,21,3,7,11,1,"Zander",1,1,0.606
1,1,21,3,7,12,0,"Archiv",1,1,0.559
1,1,21,3,7,13,1,"Seehund",1,1,0.462
1,1,21,3,7,14,3,"Koraoa",2,1,0.725
1,1,21,3,7,15,0,"Investor",1,1,0.687
1,1,21,3,7,16,2,"drabur",2,1,0.574
1,1,21,3,7,17,1,"Cartoon",1,1,0.83
1,1,21,3,7,18,1,"findig",1,1,1.591
1,1,21,3,7,19,2,"Hokin",2,1,1.494
1,1,21,3,7,20,2,"Biggur",2,1,0.678
1,1,21,3,7,21,1,"Kittel",1,1,0.718
1,1,21,3,7,22,3,"grnfeloh",2,1,0.518
1,1,21,3,7,23,0,"tragen",1,1,0.687
1,1,21,3,7,24,1,"Südost",1,1,0.558
1,1,21,3,7,25,3,"Pafünh",2,1,0.559
1,1,21,3,7,26,3,"Ööirui",2,1,0.454
1,1,21,3,7,27,2,"blatin",2,1,0.982
1,1,21,3,7,28,3,"Mornun",2,1,1.078
1,1,21,3,7,29,0,"Meister",1,1,0.51
1,1,21,3,7,30,2,"flett",2,1,0.646
1,1,21,3,7,31,3,"Tbetrti",2,1,0.479
1,1,21,3,7,32,3,"eelarh",2,1,0.446
1,1,21,3,7,33,3,"Brtli",2,1,0.454
1,1,21,3,7,34,2,"Traumph",2,1,0.663
1,1,21,3,7,35,0,"prägen",1,1,0.567
1,1,21,3,7,36,3,"vrgeuge",2,1,0.446
1,1,21,3,7,37,1,"gewitzt",1,1,1.078
1,1,21,3,7,38,2,"Robbu",2,1,0.502
1,1,21,3,7,39,1,"Zölibat",1,1,0.798
1,1,21,3,7,40,3,"Demoa",2,1,0.615
1,1,21,3,7,41,2,"Stribo",2,1,0.51
1,1,21,3,7,42,1,"Gesunde",1,1,0.486
1,1,21,3,7,43,0,"sofort",1,1,0.567
1,1,21,3,7,44,0,"Kunde",1,1,0.51
1,1,21,3,7,45,3,"gelnze",2,1,0.791
1,1,21,3,7,46,1,"Husten",1,1,0.59
1,1,21,3,7,47,3,"Cuiptoh",2,1,0.471
1,1,21,3,7,48,2,"Patir",2,1,0.767
1,1,21,3,7,49,2,"Grunate",2,1,0.926
1,1,21,3,7,50,1,"Geflecht",1,1,0.645
1,1,21,3,7,51,0,"verkauft",1,1,0.614
1,1,21,3,7,52,0,"Kampf",1,1,0.447
1,1,21,3,7,53,3,"Wouare",2,1,0.527
1,1,21,3,7,54,0,"sicher",1,1,0.566
1,1,21,3,7,55,2,"Pilest",2,1,0.726
1,1,21,3,7,56,3,"Behsog",2,1,0.583
1,1,21,3,7,57,3,"Wunolgk",2,1,0.631
1,1,21,3,7,58,2,"Prebind",2,1,0.598
1,1,21,3,7,59,3,"sasae",2,1,0.518
1,1,21,3,7,60,0,"jüdisch",1,1,0.55
1,1,21,3,7,61,1,"Aufgang",1,1,0.47
1,1,21,3,7,62,2,"Toktak",2,1,0.646
1,1,21,3,7,63,2,"Thaku",2,1,0.734
1,1,21,3,7,64,3,"paaou",2,1,0.462
1,1,21,3,7,65,0,"wohnen",1,1,0.526
1,1,21,3,7,66,1,"Gräuel",1,1,0.711
1,1,21,3,7,67,2,"gelietun",2,1,0.974
1,1,21,3,7,68,2,"Schlouar",2,1,0.622
1,1,21,3,7,69,3,"Besdt",2,1,0.526
1,1,21,3,7,70,1,"Husar",1,1,0.902
1,1,21,3,7,71,0,"einigen",1,1,0.599
1,1,21,3,7,72,0,"Reform",1,1,0.567
1,1,21,3,7,73,0,"Mittwoch",1,1,0.47
1,1,21,3,7,74,0,"Winter",1,1,0.454
1,1,21,3,7,75,0,"Ordnung",1,1,0.446
1,1,21,3,7,76,1,"lasch",1,1,0.703
1,1,21,3,7,77,2,"Notirzt",2,1,0.782
1,1,21,3,7,78,0,"Roman",1,1,0.495
1,1,21,3,7,79,1,"Omega",1,1,0.622
1,1,21,3,7,80,1,"Irrweg",1,1,0.734
1,1,21,3,7,81,1,"Bandname",1,1,0.471
1,1,21,3,7,82,3,"Grrfl",2,1,0.534
1,1,21,3,7,83,0,"Presse",1,1,0.503
1,1,21,3,7,84,0,"Protest",1,1,0.551
1,1,21,3,7,85,1,"Prälat",2,0,0.759
1,1,21,3,7,86,3,"Dnskrn",2,1,0.511
1,1,21,3,7,87,1,"Dorfkern",1,1,0.686
1,1,21,3,7,88,1,"Sühne",1,1,0.47
1,1,21,3,7,89,2,"Narwagir",2,1,0.695
1,1,21,3,7,90,1,"kegeln",1,1,0.503
1,1,21,3,7,91,1,"Plage",1,1,0.493
1,1,21,3,7,92,1,"Pfusch",1,1,0.84
1,1,21,3,7,93,3,"Iagiür",2,1,0.542
1,1,21,3,7,94,2,"stioen",2,1,0.703
1,1,21,3,7,95,3,"Aohou",2,1,0.479
1,1,21,3,7,96,1,"Bürge",1,1,0.566
1,1,21,3,7,97,0,"ruhig",1,1,0.647
1,1,21,3,7,98,0,"stoppen",1,1,0.485
1,1,21,3,7,99,0,"Talent",1,1,0.567
1,1,21,3,7,100,2,"doppoln",2,1,0.934
1,1,21,3,7,101,3,"Gmlur",2,1,0.446
1,1,21,3,7,102,3,"gaital",2,1,0.646
1,1,21,3,7,103,2,"sadonn",2,1,0.535
1,1,21,3,7,104,0,"Motor",1,1,0.519
1,1,21,3,8,5,2,"Museak",2,1,0.543
1,1,21,3,8,6,3,"faneiig",2,1,0.518
1,1,21,3,8,7,3,"paoide",2,1,0.493
1,1,21,3,8,8,2,"Stipal",2,1,0.687
1,1,21,3,8,9,3,"Srhgeu",2,1,0.439
1,1,21,3,8,10,1,"Satzball",1,1,0.767
1,1,21,3,8,11,0,"Begriff",1,1,0.607
1,1,21,3,8,12,2,"enbelagt",2,1,0.573
1,1,21,3,8,13,0,"kaufen",1,1,0.502
1,1,21,3,8,14,0,"zwölf",1,1,0.495
1,1,21,3,8,15,3,"Aaupuoe",2,1,0.462
1,1,21,3,8,16,2,"Ounstond",2,1,0.518
1,1,21,3,8,17,0,"berufen",1,1,0.479
1,1,21,3,8,18,0,"Besitzer",1,1,0.407
1,1,21,3,8,19,1,"tüfteln",1,1,0.743
1,1,21,3,8,20,0,"bisschen",1,1,0.678
1,1,21,3,8,21,1,"Rokoko",1,1,0.807
1,1,21,3,8,22,1,"Kadaver",1,1,0.814
1,1,21,3,8,23,0,"Variante",1,1,0.494
1,1,21,3,8,24,0,"Auftrag",1,1,0.431
1,1,21,3,8,25,1,"Clinch",2,0,0.759
1,1,21,3,8,26,1,"gekürt",1,1,0.806
1,1,21,3,8,27,1,"Squash",1,1,0.655
1,1,21,3,8,28,2,"klingond",2,1,0.63
1,1,21,3,8,29,2,"Kerzfalm",2,1,1.039
1,1,21,3,8,30,0,"jeweilig",1,1,0.623
1,1,21,3,8,31,2,"olburn",2,1,0.503
1,1,21,3,8,32,1,"Fehde",1,1,0.983
1,1,21,3,8,33,3,"uobmdet",2,1,0.551
1,1,21,3,8,34,0,"ständig",1,1,0.494
1,1,21,3,8,35,2,"ublosen",2,1,0.638
1,1,21,3,8,36,3,"Gpelba",2,1,0.542
1,1,21,3,8,37,1,"spuken",1,1,0.534
1,1,21,3,8,38,2,"Worzal",2,1,0.502
1,1,21,3,8,39,3,"Neznerr",2,1,0.511
1,1,21,3,8,40,2,"Gosello",2,1,0.622
1,1,21,3,8,41,2,"Sagun",2,1,0.751
1,1,21,3,8,42,1,"Gehöft",1,1,1.302
1,1,21,3,8,43,2,"kouman",2,1,0.583
1,1,21,3,8,44,1,"flitzen",1,1,0.566
1,1,21,3,8,45,1,"Fühler",1,1,0.535
1,1,21,3,8,46,1,"Erdteil",1,1,0.526
1,1,21,3,8,47,1,"Konsole",1,1,0.575
1,1,21,3,8,48,0,"Norden",1,1,0.447
1,1,21,3,8,49,1,"höllisch",1,1,0.575
1,1,21,3,8,50,2,"Pirlo",2,1,0.71
1,1,21,3,8,51,0,"Aktion",1,1,0.503
1,1,21,3,8,52,0,"erwähnen",1,1,0.479
1,1,21,3,8,53,3,"Boräiii",2,1,0.855
1,1,21,3,8,54,2,"dorwuil",2,1,0.623
1,1,21,3,8,55,2,"Matteg",2,1,0.592
1,1,21,3,8,56,2,"Wultraum",2,1,0.718
1,1,21,3,8,57,0,"ausgehen",1,1,0.742
1,1,21,3,8,58,0,"extrem",1,1,0.471
1,1,21,3,8,59,3,"keccho",2,1,0.542
1,1,21,3,8,60,3,"Grnowd",2,1,0.479
1,1,21,3,8,61,3,"Sursl",2,1,0.63
1,1,21,3,8,62,3,"Donsod",2,1,0.543
1,1,21,3,8,63,0,"Leistung",1,1,0.527
1,1,21,3,8,64,1,"Karre",1,1,0.671
1,1,21,3,8,65,3,"rfalao",2,1,0.485
1,1,21,3,8,66,0,"pflegen",1,1,0.606
1,1,21,3,8,67,3,"prmgüa",2,1,0.438
1,1,21,3,8,68,1,"Konserve",1,1,0.583
1,1,21,3,8,69,2,"drangond",2,1,0.638
1,1,21,3,8,70,0,"Bedarf",1,1,0.518
1,1,21,3,8,71,3,"Leerme",2,1,0.527
1,1,21,3,8,72,3,"tymrti",2,1,0.471
1,1,21,3,8,73,2,"hanturm",2,1,0.494
1,1,21,3,8,74,3,"neaioa",2,1,0.63
1,1,21,3,8,75,2,"schunun",2,1,0.607
1,1,21,3,8,76,2,"suchtin",2,1,0.702
1,1,21,3,8,77,1,"Hörgerät",1,1,0.607
1,1,21,3,8,78,1,"Heiland",1,1,0.711
1,1,21,3,8,79,0,"Auflage",1,1,0.535
1,1,21,3,8,80,2,"selbern",2,1,1.767
1,1,21,3,8,81,3,"Fbugezd",2,1,0.519
1,1,21,3,8,82,3,"Pztraat",2,1,0.447
1,1,21,3,8,83,2,"touschun",2,1,0.741
1,1,21,3,8,84,1,"gespickt",1,1,0.631
1,1,21,3,8,85,0,"bezahlen",1,1,0.438
1,1,21,3,8,86,0,"Version",1,1,0.534
1,1,21,3,8,87,3,"Rokemas",2,1,1.503
1,1,21,3,8,88,3,"eeraite",2,1,0.511
1,1,21,3,8,89,1,"rossen",1,1,0.519
1,1,21,3,8,90,0,"werben",1,1,0.519
1,1,21,3,8,91,2,"reizvull",1,0,0.676
1,1,21,3,8,92,0,"Kunst",1,1,0.661
1,1,21,3,8,93,3,"Küiphd",2,1,0.534
1,1,21,3,8,94,2,"Aaßara",2,1,0.566
1,1,21,3,8,95,0,"Aspekt",1,1,0.598
1,1,21,3,8,96,1,"Kaugummi",1,1,0.598
1,1,21,3,8,97,3,"Eesllmae",2,1,0.575
1,1,21,3,8,98,3,"Khsreeil",2,1,0.743
1,1,21,3,8,99,1,"Soldatin",1,1,0.559
1,1,21,3,8,100,1,"Baugrube",1,1,0.567
1,1,21,3,8,101,2,"Lektir",2,1,0.686
1,1,21,3,8,102,3,"Dulpn",2,1,0.622
1,1,21,3,8,103,1,"Känguru",1,1,0.822
1,1,21,3,8,104,0,"Quelle",1,1,0.503
1,1,21,4,1,5,0,"fliegen",1,1,0.502
1,1,21,4,1,6,2,"stolpirn",2,1,0.511
1,1,21,4,1,7,2,"Seovinir",2,1,0.431
1,1,21,4,1,8,0,"Klasse",1,1,0.43
1,1,21,4,1,9,3,"Geoltt",2,1,0.47
1,1,21,4,1,10,1,"Tiefbau",1,1,0.518
1,1,21,4,1,11,2,"siitdim",2,1,0.462
1,1,21,4,1,12,1,"Texaner",1,1,0.478
1,1,21,4,1,13,1,"zündeln",1,1,0.526
1,1,21,4,1,14,2,"Streftot",2,1,0.486
1,1,21,4,1,15,2,"Merkgrof",2,1,0.678
1,1,21,4,1,16,0,"kümmern",1,1,0.446
1,1,21,4,1,17,1,"Fachwerk",1,1,0.494
1,1,21,4,1,18,2,"Klappu",2,1,0.55
1,1,21,4,1,19,3,"fägähuf",1,0,0.477
1,1,21,4,1,20,3,"Rehnuä",2,1,0.494
1,1,21,4,1,21,1,"Backofen",1,1,0.638
1,1,21,4,1,22,2,"Krietir",2,1,0.526
1,1,21,4,1,23,2,"gifisst",2,1,0.574
1,1,21,4,1,24,3,"Güonhfn",2,1,0.47
1,1,21,4,1,25,3,"Lrctps",2,1,0.423
1,1,21,4,1,26,1,"kodieren",1,1,0.758
1,1,21,4,1,27,1,"Latino",1,1,0.758
1,1,21,4,1,28,2,"golehrt",2,1,0.622
1,1,21,4,1,29,0,"zulassen",1,1,0.485
1,1,21,4,1,30,0,"springen",1,1,0.487
1,1,21,4,1,31,2,"Opocho",2,1,0.494
1,1,21,4,1,32,1,"vorhin",1,1,0.518
1,1,21,4,1,33,1,"Attest",1,1,0.414
1,1,21,4,1,34,3,"Aeoirn",2,1,0.439
1,1,21,4,1,35,2,"Sidstedt",2,1,0.574
1,1,21,4,1,36,1,"gebraten",1,1,0.486
1,1,21,4,1,37,0,"brechen",1,1,0.671
1,1,21,4,1,38,1,"Biogas",1,1,0.59
1,1,21,4,1,39,1,"Pastorin",1,1,0.734
1,1,21,4,1,40,2,"Jemend",2,1,0.719
1,1,21,4,1,41,0,"erleiden",1,1,0.55
1,1,21,4,1,42,2,"Ombaunta",2,1,0.511
1,1,21,4,1,43,1,"Lehrzeit",1,1,0.502
1,1,21,4,1,44,0,"Besucher",1,1,0.878
1,1,21,4,1,45,3,"Femio",2,1,0.51
1,1,21,4,1,46,0,"zufolge",1,1,0.454
1,1,21,4,1,47,3,"Ureef",2,1,0.446
1,1,21,4,1,48,0,"Papst",1,1,0.478
1,1,21,4,1,49,0,"Akademie",1,1,0.535
1,1,21,4,1,50,0,"Januar",1,1,0.454
1,1,21,4,1,51,2,"Raleqiie",2,1,0.503
1,1,21,4,1,52,1,"gekrönt",1,1,0.55
1,1,21,4,1,53,3,"Rerhtnu",2,1,0.502
1,1,21,4,1,54,2,"Eonogung",2,1,0.478
1,1,21,4,1,55,2,"schuttan",2,1,0.565
1,1,21,4,1,56,0,"mehrfach",1,1,0.525
1,1,21,4,1,57,3,"gentek",2,1,0.479
1,1,21,4,1,58,0,"türkisch",1,1,0.509
1,1,21,4,1,59,1,"Trapp",1,1,0.702
1,1,21,4,1,60,3,"kekhan",2,1,0.502
1,1,21,4,1,61,0,"Prinzip",1,1,0.517
1,1,21,4,1,62,0,"bekennen",1,1,0.582
1,1,21,4,1,63,0,"Kontakt",1,1,0.502
1,1,21,4,1,64,3,"Krrncr",2,1,0.494
1,1,21,4,1,65,2,"geniugt",2,1,0.661
1,1,21,4,1,66,2,"Mundort",2,1,1.206
1,1,21,4,1,67,1,"Klöppel",1,1,0.743
1,1,21,4,1,68,3,"Bupauhe",2,1,0.478
1,1,21,4,1,69,0,"Alltag",1,1,0.487
1,1,21,4,1,70,3,"Irloineg",2,1,0.423
1,1,21,4,1,71,2,"Morga",2,1,0.527
1,1,21,4,1,72,1,"Losung",2,0,0.566
1,1,21,4,1,73,2,"Gihelz",2,1,0.551
1,1,21,4,1,74,2,"Irntu",2,1,0.574
1,1,21,4,1,75,3,"Pemivgr",2,1,0.495
1,1,21,4,1,76,1,"Tatwaffe",1,1,0.542
1,1,21,4,1,77,3,"Biisea",2,1,0.438
1,1,21,4,1,78,0,"wobei",1,1,0.566
1,1,21,4,1,79,2,"Tacka",2,1,0.461
1,1,21,4,1,80,3,"wiuhzlab",2,1,0.43
1,1,21,4,1,81,1,"hellblau",1,1,0.55
1,1,21,4,1,82,1,"Wehrmann",1,1,0.534
1,1,21,4,1,83,1,"Dampfer",1,1,0.501
1,1,21,4,1,84,3,"Maoihg",2,1,0.455
1,1,21,4,1,85,1,"Chili",2,0,0.422
1,1,21,4,1,86,3,"hbelrflt",2,1,0.454
1,1,21,4,1,87,0,"Kraft",1,1,0.47
1,1,21,4,1,88,3,"Kiskree",2,1,0.605
1,1,21,4,1,89,3,"Eurlaar",2,1,0.639
1,1,21,4,1,90,2,"Tinnol",2,1,0.558
1,1,21,4,1,91,0,"bisherig",1,1,0.517
1,1,21,4,1,92,3,"Tubipire",2,1,0.486
1,1,21,4,1,93,0,"offenbar",1,1,0.494
1,1,21,4,1,94,1,"Botanik",1,1,0.558
1,1,21,4,1,95,0,"Museum",1,1,0.519
1,1,21,4,1,96,1,"Dekor",1,1,0.557
1,1,21,4,1,97,0,"Risiko",1,1,0.454
1,1,21,4,1,98,3,"hkrlm",2,1,0.446
1,1,21,4,1,99,3,"rauneiu",2,1,0.486
1,1,21,4,1,100,3,"Faloree",2,1,0.51
1,1,21,4,1,101,1,"Sturmböe",1,1,0.574
1,1,21,4,1,102,2,"varnihm",2,1,0.438
1,1,21,4,1,103,2,"Ordbobin",2,1,0.399
1,1,21,4,1,104,0,"trinken",1,1,0.47
1,1,21,4,2,5,2,"Tuschlir",2,1,0.526
1,1,21,4,2,6,3,"Sawhoen",2,1,0.55
1,1,21,4,2,7,2,"Iduat",2,1,0.718
1,1,21,4,2,8,3,"Zofussg",2,1,0.494
1,1,21,4,2,9,1,"Tilde",2,0,2.007
1,1,21,4,2,10,3,"Aetsee",2,1,0.559
1,1,21,4,2,11,3,"Merfn",2,1,0.503
1,1,21,4,2,12,2,"Ontorort",2,1,0.55
1,1,21,4,2,13,2,"Attantat",2,1,0.783
1,1,21,4,2,14,0,"Armee",1,1,0.543
1,1,21,4,2,15,2,"Borgung",1,0,1.047
1,1,21,4,2,16,0,"erkennen",1,1,0.894
1,1,21,4,2,17,1,"Vorschub",1,1,0.599
1,1,21,4,2,18,3,"Punnieeh",2,1,0.551
1,1,21,4,2,19,2,"Kithalik",2,1,0.487
1,1,21,4,2,20,1,"ablagern",1,1,0.59
1,1,21,4,2,21,0,"still",1,1,0.543
1,1,21,4,2,22,0,"anbieten",1,1,0.455
1,1,21,4,2,23,3,"bekse",2,1,0.597
1,1,21,4,2,24,1,"solar",1,1,0.645
1,1,21,4,2,25,1,"Hören",1,1,0.479
1,1,21,4,2,26,0,"jeweils",1,1,0.462
1,1,21,4,2,27,0,"Party",1,1,0.415
1,1,21,4,2,28,3,"zanmk",2,1,0.503
1,1,21,4,2,29,0,"ansehen",1,1,0.479
1,1,21,4,2,30,1,"Abhang",1,1,0.462
1,1,21,4,2,31,0,"Natur",1,1,0.43
1,1,21,4,2,32,1,"Kurgast",1,1,0.646
1,1,21,4,2,33,2,"Wuuße",2,1,0.486
1,1,21,4,2,34,1,"Anorak",1,1,0.67
1,1,21,4,2,35,2,"tichtug",2,1,0.67
1,1,21,4,2,36,0,"Flugzeug",1,1,0.447
1,1,21,4,2,37,1,"Baukunst",1,1,0.671
1,1,21,4,2,38,0,"Kirche",1,1,0.518
1,1,21,4,2,39,1,"Lette",2,0,0.758
1,1,21,4,2,40,0,"Brand",1,1,0.47
1,1,21,4,2,41,1,"Ultra",1,1,0.654
1,1,21,4,2,42,3,"Tiplpln",2,1,0.679
1,1,21,4,2,43,2,"Knappo",2,1,0.638
1,1,21,4,2,44,1,"Libelle",1,1,0.55
1,1,21,4,2,45,2,"Elprees",2,1,0.559
1,1,21,4,2,46,3,"Fcfpe",2,1,0.422
1,1,21,4,2,47,3,"auwlau",2,1,0.414
1,1,21,4,2,48,3,"bprsane",2,1,0.495
1,1,21,4,2,49,0,"suchen",1,1,0.502
1,1,21,4,2,50,0,"kürzlich",1,1,0.566
1,1,21,4,2,51,2,"Silbu",2,1,0.518
1,1,21,4,2,52,0,"Sammlung",1,1,0.487
1,1,21,4,2,53,1,"versäumt",1,1,0.558
1,1,21,4,2,54,1,"Kätzchen",1,1,0.494
1,1,21,4,2,55,1,"Bahndamm",2,0,0.478
1,1,21,4,2,56,0,"Dienstag",1,1,0.702
1,1,21,4,2,57,2,"juboln",2,1,0.535
1,1,21,4,2,58,2,"Bottlir",2,1,0.51
1,1,21,4,2,59,3,"Dtibs",2,1,0.471
1,1,21,4,2,60,2,"schlocht",2,1,0.606
1,1,21,4,2,61,1,"optional",1,1,0.59
1,1,21,4,2,62,1,"Fixpunkt",1,1,0.653
1,1,21,4,2,63,3,"Krnmag",2,1,0.519
1,1,21,4,2,64,1,"Billett",2,0,0.647
1,1,21,4,2,65,2,"frestog",2,1,0.494
1,1,21,4,2,66,0,"Tourist",1,1,0.509
1,1,21,4,2,67,0,"Umstand",1,1,0.646
1,1,21,4,2,68,0,"Infobox",1,1,0.574
1,1,21,4,2,69,3,"betäsc",2,1,0.502
1,1,21,4,2,70,0,"Argument",1,1,0.477
1,1,21,4,2,71,3,"Lecfiyod",2,1,0.59
1,1,21,4,2,72,2,"Synurgua",2,1,0.51
1,1,21,4,2,73,1,"zulasten",1,1,0.486
1,1,21,4,2,74,3,"Brpoban",2,1,0.51
1,1,21,4,2,75,2,"Faldhirr",2,1,1.006
1,1,21,4,2,76,3,"uetdh",2,1,0.598
1,1,21,4,2,77,3,"kaüemes",2,1,0.566
1,1,21,4,2,78,0,"Auftritt",1,1,0.534
1,1,21,4,2,79,2,"Flyar",2,1,0.606
1,1,21,4,2,80,3,"roßrba",2,1,0.447
1,1,21,4,2,81,0,"Neubau",1,1,0.51
1,1,21,4,2,82,1,"Dozentin",1,1,0.574
1,1,21,4,2,83,1,"Möhre",1,1,0.463
1,1,21,4,2,84,0,"Messe",1,1,0.487
1,1,21,4,2,85,0,"russisch",1,1,0.534
1,1,21,4,2,86,3,"Toaäpm",2,1,0.494
1,1,21,4,2,87,0,"wachsen",1,1,0.511
1,1,21,4,2,88,3,"auukbe",2,1,0.582
1,1,21,4,2,89,1,"monoton",1,1,0.702
1,1,21,4,2,90,2,"obhongig",2,1,0.614
1,1,21,4,2,91,1,"durstig",1,1,0.577
1,1,21,4,2,92,0,"fürchten",1,1,0.51
1,1,21,4,2,93,3,"Mosbtiet",2,1,0.559
1,1,21,4,2,94,2,"Aigintum",2,1,0.606
1,1,21,4,2,95,2,"draamol",2,1,0.494
1,1,21,4,2,96,2,"Wruck",2,1,0.438
1,1,21,4,2,97,1,"Schippe",1,1,0.542
1,1,21,4,2,98,3,"Gegtere",2,1,0.559
1,1,21,4,2,99,3,"Aedoefg",2,1,0.742
1,1,21,4,2,100,3,"Zibitu",2,1,0.566
1,1,21,4,2,101,2,"Pruspukt",2,1,0.807
1,1,21,4,2,102,2,"stirr",2,1,1.166
1,1,21,4,2,103,2,"bingin",2,1,0.607
1,1,21,4,2,104,1,"umbaut",1,1,0.567
1,1,21,4,3,5,0,"ähnlich",1,1,0.471
1,1,21,4,3,6,3,"Hansrün",2,1,0.798
1,1,21,4,3,7,1,"abwinken",1,1,0.575
1,1,21,4,3,8,1,"Irrsinn",1,1,0.486
1,1,21,4,3,9,2,"trast",2,1,0.655
1,1,21,4,3,10,3,"Wrlhic",2,1,0.463
1,1,21,4,3,11,0,"gelegen",1,1,0.582
1,1,21,4,3,12,2,"Thrun",2,1,0.439
1,1,21,4,3,13,3,"Narrasl",2,1,0.511
1,1,21,4,3,14,0,"Signal",1,1,0.478
1,1,21,4,3,15,1,"bemannt",1,1,0.734
1,1,21,4,3,16,0,"Angst",1,1,0.462
1,1,21,4,3,17,0,"starten",1,1,0.493
1,1,21,4,3,18,1,"bersten",1,1,0.446
1,1,21,4,3,19,1,"Großrat",1,1,0.551
1,1,21,4,3,20,1,"Wärter",1,1,0.478
1,1,21,4,3,21,3,"Hlrle",2,1,0.511
1,1,21,4,3,22,3,"eemur",2,1,0.463
1,1,21,4,3,23,0,"Ihnen",1,1,0.527
1,1,21,4,3,24,3,"Köasi",2,1,0.502
1,1,21,4,3,25,3,"Saslku",2,1,0.671
1,1,21,4,3,26,0,"Regel",1,1,0.478
1,1,21,4,3,27,1,"Jüdin",1,1,0.495
1,1,21,4,3,28,0,"absolut",1,1,0.495
1,1,21,4,3,29,3,"Sneer",2,1,0.655
1,1,21,4,3,30,3,"bznsfia",2,1,0.494
1,1,21,4,3,31,1,"abringen",1,1,0.735
1,1,21,4,3,32,2,"Schwonz",2,1,0.502
1,1,21,4,3,33,2,"Onstinz",2,1,0.606
1,1,21,4,3,34,2,"ompfen",2,1,0.486
1,1,21,4,3,35,1,"Amtmann",1,1,0.79
1,1,21,4,3,36,2,"Trunsat",2,1,0.566
1,1,21,4,3,37,1,"Welpe",1,1,0.55
1,1,21,4,3,38,2,"Sindi",2,1,0.558
1,1,21,4,3,39,2,"Iltesto",2,1,0.83
1,1,21,4,3,40,0,"scheiden",1,1,0.575
1,1,21,4,3,41,3,"Mrhnerp",2,1,0.479
1,1,21,4,3,42,1,"basta",1,1,0.863
1,1,21,4,3,43,2,"Zuntrulo",2,1,0.478
1,1,21,4,3,44,0,"Kommune",1,1,0.551
1,1,21,4,3,45,0,"Trend",2,0,0.494
1,1,21,4,3,46,3,"Bktnire",2,1,0.494
1,1,21,4,3,47,1,"Burghof",1,1,0.575
1,1,21,4,3,48,1,"Seehöhe",1,1,0.447
1,1,21,4,3,49,3,"Gaoshr",2,1,0.51
1,1,21,4,3,50,2,"Moletir",1,0,0.518
1,1,21,4,3,51,2,"Steck",2,1,1.887
1,1,21,4,3,52,1,"heiser",1,1,0.598
1,1,21,4,3,53,2,"woshilb",2,1,0.79
1,1,21,4,3,54,1,"Whiskey",1,1,0.63
1,1,21,4,3,55,1,"polar",1,1,0.582
1,1,21,4,3,56,0,"danach",1,1,0.534
1,1,21,4,3,57,0,"Kenntnis",1,1,0.535
1,1,21,4,3,58,2,"oborlagt",2,1,0.606
1,1,21,4,3,59,3,"Tlderer",2,1,0.622
1,1,21,4,3,60,0,"geeignet",1,1,0.511
1,1,21,4,3,61,0,"feiern",1,1,0.614
1,1,21,4,3,62,0,"kräftig",1,1,0.455
1,1,21,4,3,63,3,"Sibdf",2,1,0.494
1,1,21,4,3,64,2,"kachon",2,1,0.79
1,1,21,4,3,65,0,"Zuhörer",1,1,1.782
1,1,21,4,3,66,2,"nanmihr",2,1,0.52
1,1,21,4,3,67,3,"Tuhuu",2,1,0.535
1,1,21,4,3,68,3,"Fustätg",2,1,0.839
1,1,21,4,3,69,3,"Kezeie",2,1,0.518
1,1,21,4,3,70,1,"rabiat",1,1,0.589
1,1,21,4,3,71,1,"Gruft",1,1,0.743
1,1,21,4,3,72,1,"adeln",1,1,0.702
1,1,21,4,3,73,0,"genauso",1,1,1.629
1,1,21,4,3,74,1,"rotweiß",1,1,0.782
1,1,21,4,3,75,3,"Völblrr",2,1,0.51
1,1,21,4,3,76,2,"getusch",2,1,1.191
1,1,21,4,3,77,3,"Diinlr",2,1,0.503
1,1,21,4,3,78,0,"Zweifel",1,1,0.581
1,1,21,4,3,79,0,"Energie",1,1,0.998
1,1,21,4,3,80,1,"beheizt",1,1,1.439
1,1,21,4,3,81,2,"Gulfur",2,1,0.558
1,1,21,4,3,82,2,"Ainkehr",2,1,0.726
1,1,21,4,3,83,1,"loslösen",1,1,0.598
1,1,21,4,3,84,1,"stämmig",1,1,0.598
1,1,21,4,3,85,2,"Baruten",2,1,0.959
1,1,21,4,3,86,1,"horrend",1,1,0.951
1,1,21,4,3,87,2,"Wosun",2,1,0.63
1,1,21,4,3,88,3,"Auttlgom",2,1,0.534
1,1,21,4,3,89,3,"Gesruhd",2,1,0.614
1,1,21,4,3,90,2,"Unsihen",2,1,0.622
1,1,21,4,3,91,2,"fektasch",2,1,0.554
1,1,21,4,3,92,3,"Fcotoo",2,1,0.478
1,1,21,4,3,93,0,"positiv",2,0,0.447
1,1,21,4,3,94,2,"ermedun",2,1,0.782
1,1,21,4,3,95,0,"entlang",1,1,1.198
1,1,21,4,3,96,1,"Eizelle",1,1,0.55
1,1,21,4,3,97,2,"Aomer",2,1,0.574
1,1,21,4,3,98,3,"Rnrdekd",2,1,0.494
1,1,21,4,3,99,0,"Leser",1,1,0.502
1,1,21,4,3,100,0,"bislang",1,1,0.711
1,1,21,4,3,101,0,"König",1,1,0.551
1,1,21,4,3,102,3,"Arnneg",2,1,0.719
1,1,21,4,3,103,2,"erbotan",2,1,0.743
1,1,21,4,3,104,3,"Uiczhlt",2,1,0.454
1,1,21,4,4,5,1,"kopfüber",1,1,0.502
1,1,21,4,4,6,1,"Meute",1,1,0.582
1,1,21,4,4,7,1,"reimen",1,1,0.454
1,1,21,4,4,8,0,"Dezember",1,1,0.438
1,1,21,4,4,9,3,"berots",2,1,0.591
1,1,21,4,4,10,0,"Kritiker",1,1,0.582
1,1,21,4,4,11,3,"beenene",2,1,0.591
1,1,21,4,4,12,3,"heltie",2,1,0.518
1,1,21,4,4,13,2,"omanis",2,1,0.542
1,1,21,4,4,14,1,"spornen",1,1,0.663
1,1,21,4,4,15,2,"kinstent",2,1,0.927
1,1,21,4,4,16,0,"typisch",1,1,0.55
1,1,21,4,4,17,1,"süßlich",1,1,0.567
1,1,21,4,4,18,1,"Stadttor",1,1,1.015
1,1,21,4,4,19,2,"Ebress",2,1,0.758
1,1,21,4,4,20,0,"Angriff",1,1,0.486
1,1,21,4,4,21,3,"Mowüad",2,1,0.647
1,1,21,4,4,22,2,"Himmuga",2,1,0.518
1,1,21,4,4,23,3,"Aiceieg",2,1,0.446
1,1,21,4,4,24,0,"umgehen",1,1,0.511
1,1,21,4,4,25,2,"neadur",2,1,0.535
1,1,21,4,4,26,3,"Witllerl",2,1,0.599
1,1,21,4,4,27,0,"zumal",1,1,0.79
1,1,21,4,4,28,0,"Dollar",1,1,0.543
1,1,21,4,4,29,2,"Pliteui",2,1,0.567
1,1,21,4,4,30,3,"snlwope",2,1,0.455
1,1,21,4,4,31,0,"sichtbar",1,1,0.527
1,1,21,4,4,32,3,"Rilhgg",2,1,0.47
1,1,21,4,4,33,1,"Endung",1,1,0.541
1,1,21,4,4,34,0,"Abstand",1,1,0.495
1,1,21,4,4,35,1,"Seeleute",1,1,0.542
1,1,21,4,4,36,0,"Körper",1,1,0.534
1,1,21,4,4,37,2,"subtel",2,1,0.67
1,1,21,4,4,38,1,"trendig",1,1,0.511
1,1,21,4,4,39,3,"Khiase",2,1,0.511
1,1,21,4,4,40,1,"ehedem",1,1,0.519
1,1,21,4,4,41,3,"Sosur",2,1,0.591
1,1,21,4,4,42,2,"Dukin",2,1,1.046
1,1,21,4,4,43,1,"Verruf",1,1,0.463
1,1,21,4,4,44,1,"nageln",1,1,0.51
1,1,21,4,4,45,0,"Wohnung",1,1,0.494
1,1,21,4,4,46,3,"Ktgqknan",2,1,0.527
1,1,21,4,4,47,1,"sesshaft",1,1,0.549
1,1,21,4,4,48,2,"Egeesmes",2,1,0.542
1,1,21,4,4,49,1,"Erwerber",1,1,0.559
1,1,21,4,4,50,3,"senuchn",2,1,0.766
1,1,21,4,4,51,2,"Pistomt",2,1,0.735
1,1,21,4,4,52,0,"Gefahr",1,1,0.478
1,1,21,4,4,53,1,"staubig",1,1,0.527
1,1,21,4,4,54,0,"deswegen",1,1,0.589
1,1,21,4,4,55,1,"Nässe",1,1,0.446
1,1,21,4,4,56,0,"genießen",1,1,0.478
1,1,21,4,4,57,1,"umworben",1,1,0.503
1,1,21,4,4,58,1,"wurmen",1,1,0.647
1,1,21,4,4,59,3,"ntfdkna",2,1,0.478
1,1,21,4,4,60,0,"Ensemble",1,1,0.639
1,1,21,4,4,61,0,"Jahrgang",1,1,0.478
1,1,21,4,4,62,2,"Athlaten",2,1,0.702
1,1,21,4,4,63,1,"krude",2,0,0.679
1,1,21,4,4,64,1,"Achsel",1,1,0.566
1,1,21,4,4,65,2,"Virsocht",2,1,0.471
1,1,21,4,4,66,3,"giezafe",2,1,0.517
1,1,21,4,4,67,2,"ebropt",2,1,0.447
1,1,21,4,4,68,3,"Pcvmsnt",2,1,0.503
1,1,21,4,4,69,2,"boblesch",2,1,0.463
1,1,21,4,4,70,3,"hedlar",2,1,0.574
1,1,21,4,4,71,3,"aacmn",2,1,0.438
1,1,21,4,4,72,3,"Rlhsin",2,1,0.478
1,1,21,4,4,73,2,"emkompft",2,1,0.759
1,1,21,4,4,74,2,"Sligin",2,1,0.838
1,1,21,4,4,75,1,"Finder",1,1,0.551
1,1,21,4,4,76,1,"extensiv",1,1,0.967
1,1,21,4,4,77,3,"wrbsei",2,1,0.47
1,1,21,4,4,78,3,"Erntein",2,1,1.111
1,1,21,4,4,79,2,"Glaroe",2,1,0.535
1,1,21,4,4,80,1,"murren",1,1,0.575
1,1,21,4,4,81,0,"rücken",1,1,0.543
1,1,21,4,4,82,2,"Wutwo",2,1,0.471
1,1,21,4,4,83,3,"Zusrhl",2,1,0.55
1,1,21,4,4,84,1,"Häppchen",1,1,0.508
1,1,21,4,4,85,3,"Dnpia",2,1,0.43
1,1,21,4,4,86,2,"Protaun",2,1,0.694
1,1,21,4,4,87,0,"Lösung",1,1,0.622
1,1,21,4,4,88,2,"schobug",2,1,0.686
1,1,21,4,4,89,1,"Farbton",1,1,0.567
1,1,21,4,4,90,2,"Scheh",2,1,0.479
1,1,21,4,4,91,2,"Ibstbiim",2,1,0.469
1,1,21,4,4,92,0,"lachen",1,1,0.534
1,1,21,4,4,93,0,"Gespräch",1,1,0.487
1,1,21,4,4,94,0,"Zeuge",1,1,0.534
1,1,21,4,4,95,2,"Suckal",2,1,0.638
1,1,21,4,4,96,2,"Krempf",2,1,1.439
1,1,21,4,4,97,0,"davor",1,1,0.607
1,1,21,4,4,98,3,"wuntea",2,1,0.542
1,1,21,4,4,99,0,"Detail",1,1,0.853
1,1,21,4,4,100,3,"Bnsirc",2,1,0.527
1,1,21,4,4,101,2,"Hunrundu",2,1,0.526
1,1,21,4,4,102,3,"Fcule",2,1,0.439
1,1,21,4,4,103,0,"reißen",1,1,0.558
1,1,21,4,4,104,0,"lauten",1,1,0.863
1,1,21,4,5,5,1,"prosten",2,0,2.495
1,1,21,4,5,6,1,"Vikariat",2,0,1.511
1,1,21,4,5,7,3,"gslmab",2,1,0.478
1,1,21,4,5,8,3,"Knailn",2,1,0.422
1,1,21,4,5,9,1,"Gefüge",1,1,0.494
1,1,21,4,5,10,0,"Freundin",1,1,0.527
1,1,21,4,5,11,0,"Umfrage",1,1,0.511
1,1,21,4,5,12,1,"ätzen",1,1,0.519
1,1,21,4,5,13,1,"Fjord",2,0,0.495
1,1,21,4,5,14,3,"Gegtvn",2,1,0.565
1,1,21,4,5,15,0,"Planung",1,1,0.646
1,1,21,4,5,16,0,"hinten",1,1,0.75
1,1,21,4,5,17,1,"obligat",1,1,1.182
1,1,21,4,5,18,0,"Bewohner",1,1,0.615
1,1,21,4,5,19,2,"Kapun",2,1,0.654
1,1,21,4,5,20,1,"launisch",1,1,0.551
1,1,21,4,5,21,1,"munkeln",1,1,0.551
1,1,21,4,5,22,2,"orlegan",2,1,1.015
